heart_rate,accel_mag,accel_x,accel_y,accel_z,hrv,mov_trend,fatigue
121,1.396,0.234,0.846,-0.243,0.0,1.0,0
84,1.873,-2.15,-1.938,-0.316,37.0,1.0,0
156,0.552,0.485,-0.075,0.011,54.5,1.0,0
148,0.724,-0.224,-0.261,-0.063,39.0,1.0,0
151,0.668,0.33,-0.489,0.042,30.0,1.0,1
111,1.366,0.722,-0.827,-0.649,32.0,1.0,0
129,1.617,0.333,-1.711,0.157,29.667,1.0,0
86,1.975,1.052,1.06,0.447,31.571,1.0,0
81,1.707,0.339,0.999,-0.245,28.25,1.0,0
132,1.654,-0.891,0.828,0.147,30.778,1.0,0
139,1.106,0.24,1.021,-0.012,28.4,1.0,0
153,1.18,-0.043,-1.005,0.369,27.091,1.0,0
132,1.407,1.248,-0.438,-0.341,26.583,1.0,0
174,0.3,0.209,0.046,0.028,27.769,1.0,1
90,2.091,-0.881,-0.411,-0.246,31.786,1.0,0
169,0.0,0.0,0.0,0.0,34.933,1.0,1
133,1.421,1.608,0.149,0.11,35.0,1.0,0
177,0.248,-0.249,-0.16,-0.074,35.529,1.0,1
90,2.539,-0.293,0.459,-0.026,38.389,1.0,0
170,0.327,-0.225,-0.152,0.076,40.579,0.785,1
171,0.42,-0.222,0.019,-0.062,38.684,0.742,1
99,1.83,-0.553,-1.703,0.038,38.684,0.804,0
164,0.517,-0.243,-0.1,0.126,41.684,0.769,0
170,0.386,0.589,-0.075,-0.024,41.842,0.726,1
179,0.328,-0.244,-0.26,0.051,40.211,0.689,1
179,0.312,0.228,0.042,0.079,39.263,0.622,1
92,1.586,1.775,0.451,-0.567,41.579,0.663,0
165,0.55,-0.373,0.318,0.068,45.158,0.716,1
153,0.729,-0.389,-0.357,-0.017,43.105,0.707,0
180,0.371,0.12,0.609,0.01,44.158,0.59,1
142,1.043,-0.67,0.302,-0.07,45.421,0.692,0
97,1.763,0.783,-0.479,0.411,46.684,0.729,0
129,1.557,0.2,-1.164,0.081,46.158,0.816,0
163,0.746,-0.362,0.026,-0.256,43.526,0.646,1
183,0.357,-0.205,0.296,0.097,40.421,0.66,1
174,0.302,0.697,0.103,0.103,39.0,0.688,1
161,0.735,-0.341,-0.104,-0.107,37.368,0.62,0
135,0.763,0.164,-0.19,0.018,34.158,0.688,0
85,2.127,0.082,-1.375,-0.456,32.579,0.86,0
165,1.178,1.303,-1.431,0.066,36.737,1.001,1
156,0.366,0.111,0.19,-0.132,33.421,1.065,0
86,1.895,-1.833,1.075,0.72,33.684,1.056,0
160,1.61,-1.467,-0.468,0.612,37.263,1.209,0
82,1.729,1.942,-0.02,-0.484,40.895,1.245,0
131,0.926,0.907,-0.794,-0.122,43.474,1.478,0
136,1.318,1.856,0.32,0.36,39.158,1.378,0
91,1.62,0.068,-0.375,0.055,37.684,1.331,0
142,1.115,1.413,0.46,0.024,39.737,1.177,0
138,1.113,-0.139,-0.329,-0.197,38.526,1.376,0
98,2.086,1.818,0.453,0.364,38.632,1.511,0
173,0.194,0.087,0.071,-0.001,40.211,1.517,1
136,1.099,0.766,1.024,-0.145,40.474,1.697,0
170,0.704,-0.101,0.361,-0.057,40.474,1.655,0
174,0.26,0.093,-0.127,0.163,39.632,1.297,1
149,0.941,0.435,0.377,-0.197,40.474,1.202,0
134,1.593,-0.141,-0.789,-0.154,40.579,1.284,0
96,2.207,-0.574,0.27,0.37,41.211,1.278,0
98,1.366,-1.153,-0.589,-0.087,38.684,1.176,0
143,1.014,-0.012,-0.61,-0.006,36.842,1.061,1
87,2.181,1.009,0.645,0.058,39.316,1.1,0
143,1.18,0.159,0.009,0.035,38.579,1.075,0
173,0.478,0.116,-0.124,0.266,36.263,1.018,1
166,0.737,-0.049,0.432,-0.321,32.526,1.022,0
97,1.163,-0.367,-0.53,0.052,33.579,1.003,0
166,0.286,0.098,0.167,0.064,36.947,0.816,1
152,1.654,-0.466,-1.7,0.672,35.316,0.898,0
179,0.278,-0.409,-0.15,-0.009,34.053,0.838,1
177,0.251,0.007,-0.068,0.047,33.947,0.817,1
118,1.461,0.929,1.351,-0.363,34.947,0.975,0
157,1.01,0.07,0.103,0.35,33.053,0.993,1
158,0.894,0.799,0.471,-0.116,31.158,0.888,0
86,2.118,-2.235,-1.503,-1.295,33.158,0.868,0
179,0.033,-0.01,0.026,0.01,37.842,0.807,1
179,0.08,-0.003,0.018,-0.001,36.526,0.786,1
148,0.868,-0.064,-0.039,-0.287,37.368,0.664,0
140,1.281,0.734,-0.758,0.194,35.789,0.674,0
81,1.632,-1.405,-0.188,0.028,38.789,0.784,0
141,0.56,0.072,0.286,-0.104,39.579,0.791,1
155,0.585,0.833,-0.109,-0.11,37.368,0.755,0
142,0.815,0.152,-0.476,0.019,35.105,0.878,1
115,1.361,-0.618,-1.161,-0.264,34.947,0.784,0
79,1.865,1.019,1.181,0.366,36.474,0.924,0
135,1.042,0.952,0.337,-0.324,35.789,1.001,0
132,1.719,-1.351,-1.974,0.485,32.316,0.945,0
169,0.306,-0.12,-0.09,-0.054,33.526,0.899,1
81,1.049,0.431,0.246,-0.027,36.737,0.948,0
174,0.326,0.098,-0.191,0.01,41.526,0.841,1
166,0.887,-0.405,-0.406,-0.48,38.842,0.976,0
129,1.208,-1.105,0.578,-0.413,38.737,1.123,0
138,1.104,0.031,-0.57,-0.127,39.158,1.26,0
83,2.028,1.346,0.939,-0.44,38.263,1.31,0
164,1.473,-0.179,0.328,-0.267,37.632,1.188,0
180,0.408,-0.029,0.028,-0.073,38.474,1.192,1
95,1.918,-0.485,0.334,1.194,41.316,1.348,0
131,1.584,-0.238,1.237,-0.321,42.789,1.352,0
108,1.306,1.313,0.256,-0.086,40.895,1.378,0
145,1.329,-0.705,0.229,0.066,39.684,1.194,0
141,1.402,-0.349,0.532,0.955,39.158,1.156,0
175,0.29,-0.19,-0.142,0.132,40.263,1.048,1
180,0.354,-0.108,-0.057,-0.104,39.105,1.099,1
156,0.589,0.308,0.479,0.073,38.474,1.058,1
157,0.982,-0.302,0.101,0.246,35.579,1.247,0
142,1.283,0.216,-0.867,0.942,36.211,1.201,0
91,2.335,0.827,0.304,0.31,36.947,1.186,0
108,2.204,2.106,-0.676,-0.654,33.211,1.238,0
177,0.504,0.158,-0.178,-0.02,31.947,1.089,1
122,0.804,0.397,0.035,-0.311,34.421,1.059,0
149,0.399,-0.062,-0.059,-0.033,33.895,1.068,1
144,1.253,0.812,-1.387,-0.382,33.684,0.949,0
181,0.223,-0.148,0.344,0.004,32.737,0.835,1
82,2.002,-0.138,0.186,1.544,33.684,0.875,0
78,1.724,1.555,-2.741,0.564,33.053,0.924,0
120,1.361,0.237,-0.208,-0.061,30.789,0.904,0
141,0.967,1.016,0.543,0.369,30.0,1.022,0
82,1.582,0.094,-0.124,0.237,31.895,1.093,0
79,1.728,-0.389,0.737,0.23,30.105,1.194,0
187,0.149,-0.059,-0.084,-0.075,35.579,1.098,1
188,0.198,0.124,-0.084,-0.084,33.842,1.01,1
166,0.417,-0.521,0.425,0.026,34.737,0.844,1
159,0.894,-0.017,-0.195,-0.015,33.842,0.729,1
160,1.502,-0.561,-0.377,-0.58,33.842,0.846,0
136,1.359,-0.798,0.333,-0.694,34.316,0.911,0
156,0.805,0.124,0.475,0.402,32.684,0.935,0
100,1.753,0.848,0.403,-1.246,34.737,1.003,0
95,1.582,0.177,-0.717,-0.29,31.368,1.181,0
118,1.702,-0.903,0.586,-0.896,29.684,1.111,0
140,1.355,-0.698,0.57,-0.234,29.421,1.062,0
136,0.793,0.47,-0.168,0.058,29.368,1.029,0
89,2.331,-0.877,2.535,0.495,29.895,1.069,0
155,0.482,0.269,-0.21,-0.036,28.158,0.936,1
170,0.227,0.145,0.016,0.056,28.737,0.804,1
164,0.867,0.239,-0.794,-0.015,26.842,0.879,0
180,0.271,0.044,-0.207,-0.088,26.579,0.938,1
184,0.363,-0.018,-0.101,0.097,23.684,1.05,1
178,0.204,-0.053,-0.038,0.014,23.842,1.098,1
129,1.222,0.099,0.302,-0.707,20.737,1.008,0
168,0.403,-0.326,0.142,0.086,22.737,0.911,1
160,0.597,0.504,0.329,0.056,22.0,0.876,1
175,0.395,0.375,-0.124,-0.05,22.421,0.768,1
131,0.998,-0.629,-1.158,-0.362,24.684,0.678,0
167,0.657,0.911,-0.262,0.23,25.316,0.63,1
154,1.109,-0.353,-0.415,-0.185,24.947,0.629,0
156,0.666,0.568,-0.228,-0.166,22.105,0.643,1
180,0.179,-0.076,0.254,0.05,23.105,0.476,1
155,0.622,0.203,0.405,-0.159,23.211,0.515,1
136,0.886,-0.389,-0.018,0.477,23.053,0.607,0
96,1.482,-3.095,-0.774,0.536,24.947,0.618,0
139,1.505,1.667,0.527,-0.162,24.737,0.691,0
167,0.784,0.386,0.239,0.251,22.737,0.719,1
169,0.57,0.164,-0.057,0.025,22.053,0.774,1
126,1.448,0.363,0.348,-0.098,24.0,0.803,0
135,1.357,0.038,-1.107,0.304,23.632,0.923,0
171,0.743,0.111,0.703,-0.021,25.316,0.947,0
162,0.735,0.18,0.474,-0.226,25.474,1.074,0
71,2.09,-0.602,0.16,0.23,27.684,1.215,0
84,2.27,-0.09,-0.756,1.281,26.316,1.473,0
120,1.247,0.485,0.739,0.42,27.789,1.519,0
150,1.495,-0.089,1.657,-0.48,28.579,1.614,0
145,1.238,-0.528,-0.497,0.028,26.526,2.138,0
132,1.275,0.855,0.262,0.175,25.316,2.178,0
163,0.822,0.097,0.349,-0.022,26.263,2.019,1
104,1.912,-0.869,-1.559,-0.181,29.263,1.939,0
136,1.096,0.553,-0.429,-0.147,29.684,1.69,0
71,1.748,-0.722,2.593,-0.26,31.789,1.712,0
144,1.428,-0.828,-0.041,-0.002,34.632,1.731,0
150,0.805,0.861,0.101,-0.493,32.842,1.647,0
87,1.774,-0.191,-0.779,0.104,33.895,1.56,0
151,0.586,0.201,0.097,-0.14,35.789,1.531,0
160,0.571,0.135,0.233,-0.099,36.158,1.481,1
184,0.382,0.045,0.475,-0.079,35.158,1.257,1
130,1.361,-0.843,-0.432,0.253,37.526,1.079,0
148,1.818,0.476,0.041,0.065,36.579,1.104,0
84,1.863,1.22,-0.124,0.522,39.474,1.073,0
145,0.932,-0.819,0.126,0.293,37.895,0.995,0
133,1.834,-1.797,-0.63,0.44,37.842,0.99,0
91,2.243,1.857,-0.842,0.266,38.158,1.068,0
162,0.642,0.209,-0.143,0.149,40.316,0.979,1
100,0.953,0.183,0.214,-0.025,43.316,0.993,0
119,1.648,-0.463,0.343,-0.023,43.632,0.94,0
94,1.171,0.179,-0.182,0.434,43.316,0.889,0
105,2.055,-0.43,-0.431,-0.198,40.789,0.979,0
190,0.286,0.223,-0.052,0.033,43.579,0.887,1
89,1.789,0.781,0.056,0.393,45.474,0.953,0
134,1.123,0.006,0.094,0.153,44.0,0.988,0
183,0.0,0.0,0.0,0.0,46.263,1.058,1
79,1.883,-0.735,1.212,-0.093,48.421,1.141,0
98,1.949,0.176,0.427,1.405,46.053,1.113,0
177,0.205,0.008,0.024,0.028,49.737,1.002,1
165,0.471,-0.218,0.084,0.142,49.105,0.993,0
157,1.023,0.278,-1.034,-0.286,46.684,0.921,1
164,0.84,0.65,-0.132,0.03,46.105,0.788,1
79,1.471,-1.271,1.407,-0.374,47.211,0.884,0
116,1.209,-0.938,-0.436,0.062,45.947,0.904,0
154,0.562,0.76,0.02,0.19,47.316,0.851,0
118,0.806,0.495,1.18,0.335,47.0,0.843,0
181,0.225,0.053,-0.025,0.037,46.579,0.698,1
73,1.77,-1.05,-1.172,0.096,49.0,0.835,0
151,1.754,0.814,-0.635,-0.835,52.105,0.782,0
95,1.509,0.095,-1.208,-0.272,53.737,0.78,0
162,0.979,-0.044,0.074,-0.126,56.684,0.845,1
185,0.288,-0.049,0.069,0.043,53.421,0.744,1
119,0.927,-0.385,-0.4,0.249,51.579,0.689,0
188,0.167,0.024,-0.078,0.111,52.842,0.748,1
77,1.99,0.494,-0.221,-0.078,56.105,0.85,0
102,2.287,-2.109,0.367,1.001,51.947,0.962,0
114,1.059,1.041,1.066,-0.176,51.579,1.06,0
162,0.593,-0.135,-0.072,-0.104,49.947,0.956,1
79,1.624,-0.192,-0.74,0.016,53.684,0.966,0
179,0.094,0.019,0.047,-0.056,58.526,1.002,1
139,1.508,1.762,-0.236,0.781,60.263,1.07,0
95,1.823,0.589,-1.007,0.093,58.105,1.327,0
75,2.275,-0.419,1.794,-0.829,57.211,1.232,0
151,0.637,0.028,0.298,0.014,59.211,1.161,1
169,0.738,-0.137,0.223,0.129,58.263,1.084,0
153,0.434,0.023,0.184,-0.11,55.789,0.987,0
115,1.417,2.119,-0.005,0.356,52.105,1.167,0
175,0.296,-0.078,0.207,0.051,51.158,1.207,1
142,1.248,-0.566,0.402,-0.336,49.947,1.287,0
135,1.351,-0.183,0.16,0.999,46.789,1.12,0
157,0.702,-0.553,-0.157,-0.209,46.737,0.941,0
90,1.959,-0.083,0.572,0.038,46.789,0.982,0
111,1.385,-0.659,0.449,-0.533,44.263,1.085,0
158,0.998,-0.338,-0.246,-0.11,40.895,1.019,0
82,1.684,0.172,0.162,0.002,43.579,1.148,0
168,0.341,0.102,0.469,-0.107,47.474,1.03,1
176,0.113,-0.015,-0.08,-0.061,45.368,0.848,1
183,0.326,-0.006,-0.034,-0.038,41.368,0.722,1
134,1.136,0.267,-1.008,0.062,38.684,0.795,0
80,1.791,-2.106,2.214,-0.641,39.421,0.893,0
134,1.248,1.282,-1.027,-0.604,39.947,0.973,0
138,1.362,0.934,-0.916,-0.653,39.105,0.907,0
175,0.466,-0.169,0.207,0.042,37.053,0.951,1
154,0.734,0.202,-0.298,0.443,37.211,0.865,1
91,1.871,-0.511,-0.901,0.729,39.684,0.927,0
149,1.103,-0.693,0.355,0.392,40.737,1.045,0
143,1.482,1.166,-1.114,-0.223,37.895,0.961,0
103,1.967,0.538,2.555,-0.38,38.263,0.95,0
183,0.396,0.427,0.177,0.07,42.105,0.95,1
157,0.532,-0.19,-0.409,-0.277,42.316,0.806,1
144,0.656,-0.109,-0.527,0.18,39.474,0.878,1
176,0.278,-0.042,0.268,0.041,40.053,0.985,1
165,0.492,0.149,0.118,-0.096,38.158,1.138,1
178,0.101,0.03,0.044,0.07,34.842,1.025,1
147,1.47,-1.553,0.664,0.168,31.947,0.933,0
155,0.796,-0.1,-0.406,-0.139,31.947,0.857,1
164,0.844,0.732,0.606,-0.154,32.053,0.827,0
148,0.479,0.207,-0.107,0.248,30.316,0.819,0
175,0.08,0.07,0.081,-0.018,28.895,0.804,1
74,2.179,-0.721,3.344,-0.369,31.368,0.798,0
161,1.072,1.214,0.659,0.191,35.737,0.776,1
134,1.694,1.134,-0.66,0.482,35.211,0.813,0
143,0.957,-0.111,-0.412,-0.536,34.579,0.723,0
94,1.39,0.158,0.481,0.777,33.842,0.813,0
151,0.655,-0.377,0.471,-0.381,33.789,0.884,1
156,0.476,-0.151,0.22,-0.271,33.737,0.854,0
179,0.203,-0.195,0.063,-0.033,32.842,0.84,1
121,1.285,0.159,-0.292,-1.106,31.684,0.882,0
158,0.58,0.163,0.137,-0.1,32.263,0.978,1
159,0.659,0.14,-0.087,-0.166,31.632,0.943,0
152,0.999,-0.162,-0.315,-0.004,30.316,0.989,0
65,2.065,0.913,-0.349,0.042,34.316,1.12,0
181,0.239,-0.087,0.127,-0.066,39.737,1.101,1
182,0.125,0.022,-0.101,0.017,38.158,1.162,1
159,0.538,-0.102,-0.237,-0.131,38.947,1.006,0
184,0.516,-0.092,0.047,0.059,39.789,0.966,1
108,1.478,-2.591,0.387,0.401,42.947,0.933,0
156,0.99,-0.422,0.044,0.415,44.053,1.014,0
135,1.106,-0.53,-0.32,-0.316,39.842,0.915,0
148,0.719,-0.126,-0.674,0.19,35.947,0.911,1
134,1.008,-0.003,0.628,0.153,35.263,0.965,0
136,0.869,0.479,-0.348,0.488,34.895,1.022,0
168,0.853,-0.098,0.248,-0.217,34.0,0.932,1
166,0.614,-0.123,-0.149,-0.176,31.105,0.903,1
140,1.079,0.132,0.124,0.078,32.211,0.989,0
134,1.436,-0.915,0.369,-0.081,31.316,1.006,0
99,1.81,-0.29,1.947,0.122,30.105,0.906,0
179,0.215,0.044,-0.038,0.011,32.368,0.919,1
170,0.639,-0.75,-0.814,-0.117,32.789,0.952,1
129,1.598,0.523,-0.805,-0.271,34.579,1.154,0
130,1.785,-0.345,1.303,0.814,30.053,1.308,0
133,1.668,0.038,0.136,0.186,24.105,1.347,0
125,1.161,0.14,0.197,-0.09,24.474,1.357,0
84,2.033,1.678,1.235,-1.181,25.421,1.468,0
91,1.954,0.211,0.411,0.287,24.474,1.563,0
150,0.867,0.35,0.988,-0.034,23.579,1.485,1
123,1.342,0.886,0.204,-0.026,22.474,1.446,0
84,1.773,0.353,0.203,0.377,23.421,1.567,0
129,1.359,0.258,0.725,-0.215,25.105,1.621,0
139,1.851,-0.248,-0.388,-0.011,24.895,1.628,0
131,0.818,0.382,0.515,-0.212,25.211,1.531,0
99,2.313,-0.145,-0.234,0.049,25.211,1.598,0
101,1.904,1.329,0.303,0.367,25.211,1.727,0
179,0.35,-0.568,0.142,-0.069,27.947,1.642,1
145,0.877,0.121,0.849,0.346,29.421,1.477,1
151,0.857,-0.126,-0.433,0.558,27.895,1.304,1
176,0.398,0.146,0.547,0.013,25.0,1.212,1
82,1.404,-0.515,-0.031,-0.181,29.474,1.214,0
173,0.228,-0.283,0.062,-0.085,32.105,1.046,1
135,0.863,-0.16,-0.389,0.083,34.053,0.919,0
151,1.413,-0.153,-0.661,-0.082,34.737,0.955,0
157,0.541,-0.006,0.349,-0.065,34.632,0.89,1
127,0.759,-0.721,0.122,0.116,34.053,0.798,0
167,0.592,-0.171,0.052,0.286,35.789,0.732,1
98,1.55,-2.055,-0.826,-0.143,36.316,0.692,0
133,1.323,-0.178,-0.516,0.067,36.737,0.736,0
163,0.935,-0.973,0.397,0.065,36.263,0.655,0
163,0.827,-0.568,0.054,-0.008,33.895,0.56,0
132,2.103,-0.613,-2.473,0.462,35.0,0.644,0
167,0.785,0.867,-0.351,-0.222,36.421,0.661,1
151,0.978,-0.147,-1.068,-0.203,35.579,0.696,1
170,0.368,-0.218,0.327,-0.028,36.474,0.739,1
77,1.708,0.799,1.342,0.715,37.263,0.745,0
133,1.086,0.723,-0.771,-0.531,38.421,0.865,0
102,1.792,0.301,-0.871,0.228,39.737,0.974,0
135,1.157,-0.071,0.284,-0.381,40.158,0.93,0
86,1.722,1.652,0.58,-0.153,37.789,1.044,0
89,1.869,0.269,1.013,-0.863,33.158,1.18,0
117,0.942,0.081,0.979,0.63,32.632,1.262,0
158,0.946,-0.447,-0.352,-0.048,33.947,1.247,0
129,1.318,0.391,0.76,-0.722,35.158,1.206,0
110,1.524,-2.314,-0.262,0.503,34.579,1.367,0
175,0.61,-0.467,0.968,-0.275,35.895,1.464,0
92,2.331,-0.506,0.392,-0.465,36.632,1.304,0
183,0.288,-0.005,0.194,-0.004,39.579,1.278,1
148,0.531,-0.19,0.438,-0.341,39.842,1.237,0
185,0.939,-0.19,0.313,0.025,41.789,1.279,1
101,1.739,-0.141,1.047,1.217,44.579,1.255,0
179,0.248,-0.058,0.167,0.071,46.842,1.134,1
156,0.551,-0.207,0.285,0.157,47.211,0.997,0
141,1.455,0.625,0.368,-0.259,47.0,1.031,0
169,0.842,-0.387,0.107,-0.207,43.579,0.912,1
134,1.097,-0.095,-0.522,-0.101,42.474,0.817,0
178,0.311,-0.086,-0.041,0.136,43.158,0.769,1
160,0.378,-0.173,0.198,-0.072,42.368,0.764,0
182,0.231,-0.037,-0.277,0.044,40.947,0.705,1
170,0.085,0.061,-0.043,0.009,41.421,0.608,1
159,0.268,0.29,0.2,0.017,40.526,0.597,1
85,2.053,0.689,0.291,0.844,42.263,0.576,0
139,1.147,-0.018,-1.218,-0.239,43.579,0.637,0
156,0.575,0.005,-0.113,0.027,43.474,0.655,0
172,0.363,-0.059,-0.169,0.079,40.895,0.604,1
129,1.379,0.16,0.704,-0.057,38.789,0.584,0
134,1.895,1.783,-1.51,0.297,34.263,0.703,0
153,0.718,0.085,0.088,-0.061,33.421,0.766,0
158,0.61,-1.037,0.006,-0.264,31.737,0.702,1
132,1.148,-0.102,-0.312,0.5,28.684,0.76,0
175,0.298,-0.066,0.376,-0.024,26.842,0.746,1
162,0.389,0.191,0.298,0.095,26.316,0.783,0
120,1.793,-0.969,0.687,-0.177,27.737,0.914,0
142,0.777,0.055,-0.711,-0.264,27.421,1.032,0
87,1.502,-2.309,-0.172,1.087,28.474,1.282,0
97,1.961,-0.049,2.375,0.127,26.684,1.471,0
143,1.515,0.399,0.018,0.306,28.158,1.459,0
95,2.094,-0.933,-2.716,0.161,29.526,1.433,0
136,1.315,0.137,0.193,-0.088,31.053,1.49,0
152,1.181,-0.127,-0.527,-0.282,31.316,1.638,0
132,1.798,0.023,0.249,-0.68,28.474,1.73,0
83,1.902,-1.134,0.449,0.806,28.211,1.505,0
94,2.142,2.031,-1.305,-0.521,27.895,1.596,0
170,0.224,-0.246,0.044,0.042,31.053,1.677,1
81,2.427,-2.341,0.269,1.473,33.474,1.739,0
90,2.052,-0.761,2.694,-1.166,33.684,2.014,0
117,1.22,-0.314,0.431,-0.585,34.105,2.072,0
140,1.085,0.102,0.106,0.013,35.053,1.791,0
94,1.806,-0.695,0.529,0.977,36.105,1.795,0
88,2.218,1.564,0.309,-0.8,34.158,1.672,0
157,0.7,0.26,-0.087,0.132,37.105,1.426,0
77,2.065,-0.56,-0.582,0.165,39.105,1.508,0
134,1.154,-0.551,0.235,-0.262,40.947,1.369,0
168,0.185,0.147,0.158,-0.033,39.842,1.248,1
178,0.309,0.221,-0.11,0.038,39.842,1.146,1
116,0.937,0.411,0.008,-0.268,40.684,1.075,0
92,1.743,-1.611,2.074,0.287,39.421,1.067,0
181,0.52,-0.415,0.44,-0.063,41.947,0.913,1
117,1.296,-0.974,0.283,0.345,44.474,0.984,0
85,1.803,0.768,1.369,-0.2,45.105,0.896,0
185,0.143,0.058,0.102,-0.076,47.789,0.745,1
138,1.507,-2.313,-0.661,-0.463,49.684,0.731,0
143,0.955,0.382,0.265,-0.495,45.947,0.748,0
126,1.559,0.542,-0.431,-0.531,42.158,0.706,0
174,0.392,0.409,0.23,0.01,44.211,0.612,1
153,0.796,-0.272,0.311,-0.359,43.895,0.649,1
146,1.541,0.031,-0.884,-1.068,43.053,0.613,0
178,0.303,0.162,-0.058,0.163,42.316,0.601,1
184,0.342,-0.087,0.139,-0.055,42.316,0.638,1
141,1.432,0.669,0.393,0.719,40.947,0.717,0
163,0.243,0.066,-0.078,-0.052,37.895,0.714,1
104,1.345,-0.288,0.718,0.232,38.0,0.7,0
156,1.312,-0.187,0.212,0.096,38.947,0.803,0
151,1.156,-0.599,0.481,-0.136,38.684,0.752,0
154,0.854,0.621,0.134,-0.095,35.579,0.727,1
136,0.999,-0.661,0.749,-0.454,35.263,0.858,0
127,1.76,-0.566,-1.803,-0.59,31.053,0.858,0
102,1.962,-0.181,1.633,0.675,29.0,0.923,0
157,0.435,-0.077,-0.138,-0.066,30.211,0.87,1
167,0.253,-0.115,-0.035,-0.07,25.474,0.965,1
154,1.04,-0.934,-0.406,-0.026,23.684,0.975,0
117,1.585,-1.223,0.083,0.188,25.368,1.012,0
84,1.719,1.725,1.382,-0.67,26.211,1.175,0
98,2.157,1.312,-2.038,0.599,24.421,1.29,0
147,1.381,0.457,0.282,0.162,25.895,1.192,0
149,0.527,0.536,-0.484,0.081,25.632,1.268,0
133,1.449,-0.335,0.366,-0.376,24.789,1.311,0
158,0.674,0.334,0.678,-0.1,25.789,1.199,0
107,2.214,-1.717,0.916,-0.334,26.211,1.282,0
92,1.908,0.65,-0.8,-0.498,25.842,1.445,0
89,1.585,0.649,1.415,-0.276,22.895,1.401,0
179,0.291,0.079,-0.244,0.018,24.895,1.279,1
166,0.877,-0.097,-0.326,0.04,25.316,1.131,1
144,1.064,-0.882,0.194,0.23,26.316,1.259,0
177,0.55,-0.2,0.567,0.329,27.105,1.291,0
173,0.202,-0.215,-0.084,0.0,26.842,1.214,1
129,1.733,-1.307,0.846,-0.145,27.842,1.22,0
87,1.963,-1.223,0.16,0.097,27.158,1.13,0
157,0.578,0.035,-0.575,-0.372,30.316,0.931,0
141,1.445,0.474,0.476,-0.11,30.474,0.937,0
171,0.114,0.048,0.001,0.036,30.105,0.9,1
109,1.41,-0.265,0.78,0.204,31.632,0.893,0
175,0.409,-0.271,0.088,-0.121,34.368,0.91,1
164,0.617,-0.109,0.041,0.323,32.368,0.776,0
82,1.422,-0.185,-0.263,1.036,36.579,0.711,0
94,1.756,-0.625,-0.777,-0.368,36.368,0.699,0
184,0.459,-0.437,-0.518,0.258,39.789,0.761,1
163,0.7,-0.545,0.138,0.194,38.211,0.797,1
138,1.025,-0.206,-0.485,0.133,38.737,0.768,0
81,2.058,-0.29,0.047,-0.894,41.579,0.835,0
134,1.071,1.303,0.616,-0.352,39.632,0.922,0
98,1.884,1.988,0.421,0.22,40.842,0.922,0
165,0.231,-0.033,0.198,0.023,43.211,0.817,1
176,0.17,-0.006,0.126,-0.023,42.053,0.869,1
176,0.344,0.102,0.009,0.02,41.842,0.801,1
84,2.16,-0.638,-2.432,0.402,44.368,0.944,0
77,1.359,-0.152,-0.503,0.718,42.526,0.943,0
157,0.83,-0.567,0.134,0.377,43.053,0.984,1
94,2.237,0.945,1.059,0.056,45.526,1.201,0
104,2.122,1.943,-0.918,0.337,44.474,1.291,0
92,1.939,0.23,0.362,0.989,41.842,1.288,0
184,0.436,0.291,-0.024,-0.159,43.211,1.272,1
153,0.57,-0.259,-0.235,0.145,44.263,1.278,0
133,1.028,0.937,0.315,0.318,41.0,1.282,0
167,0.48,0.05,0.159,-0.169,42.158,1.061,0
81,1.496,0.629,-1.37,0.277,41.947,1.032,0
164,0.825,-0.47,0.71,-0.114,45.211,0.96,1
134,1.405,-1.319,0.08,-0.111,45.474,1.146,0
143,1.212,-0.341,0.469,-0.257,42.947,1.249,0
91,2.027,0.745,-1.237,-0.148,42.895,1.472,0
102,1.621,-1.762,0.623,-0.584,41.579,1.246,0
96,1.987,1.584,0.461,0.65,38.368,1.291,0
167,0.766,0.067,0.011,-0.081,41.526,1.253,1
172,0.429,-0.142,0.095,-0.27,41.789,1.036,1
101,1.965,0.816,1.883,-0.039,40.684,0.988,0
154,0.488,0.434,0.0,-0.187,43.105,0.9,1
168,0.968,0.235,-0.594,-0.35,39.632,0.93,0
162,1.097,-0.35,0.344,0.438,36.632,0.965,1
163,0.793,-0.466,1.456,-0.262,36.158,0.952,1
157,0.777,-0.095,-0.811,0.26,35.842,1.059,1
89,1.665,0.195,-0.757,-0.565,34.579,1.043,0
181,0.233,0.03,-0.125,0.07,37.789,1.074,1
179,0.332,-0.007,0.091,-0.051,36.842,0.94,1
176,0.284,0.053,-0.114,-0.015,35.211,0.837,1
88,1.335,-0.394,-0.228,-0.103,35.316,0.732,0
176,0.08,-0.022,-0.029,0.025,35.579,0.674,1
129,1.194,-0.552,-0.929,-0.163,36.474,0.614,0
91,1.686,0.336,0.891,-0.192,38.0,0.661,0
89,1.545,0.531,-1.656,-0.167,35.368,0.787,0
162,0.467,0.005,-0.027,-0.249,38.632,0.712,1
71,1.682,-1.197,-2.343,0.273,43.105,0.845,0
173,0.796,0.176,0.585,0.033,44.737,0.809,0
176,0.335,-0.01,-0.282,-0.005,44.632,0.742,1
155,1.173,0.729,-0.192,0.371,42.0,0.774,0
153,1.218,-0.178,-0.219,0.696,39.316,0.785,0
154,0.93,0.369,-1.17,0.241,38.632,0.737,0
161,0.481,-0.262,-0.206,0.064,38.684,0.777,0
129,0.969,0.128,0.708,-0.149,40.316,0.866,0
136,1.047,0.252,0.294,0.163,40.368,0.968,0
80,1.923,-0.355,-0.967,-0.511,39.737,1.053,0
92,1.913,1.554,0.791,-0.081,35.526,1.315,0
120,1.291,-0.704,-0.725,-0.259,36.895,1.407,0
89,2.067,1.973,-0.255,-0.028,38.368,1.338,0
120,1.142,0.951,-0.264,0.131,35.368,1.207,0
84,1.467,2.121,0.195,0.009,32.632,1.424,0
145,0.675,0.698,-0.116,0.058,33.368,1.232,0
74,1.71,0.256,-0.916,-0.418,35.105,1.313,0
128,1.165,0.879,-0.374,0.125,37.842,1.452,0
166,0.476,-0.05,0.191,0.014,36.0,1.36,1
170,0.559,-0.404,0.031,0.042,31.421,1.27,0
182,0.104,-0.073,0.071,0.01,26.684,1.278,1
141,1.563,1.381,-0.566,-0.108,28.684,1.335,0
125,0.925,-0.26,-0.641,-0.304,28.421,1.272,0
179,0.259,-0.464,-0.029,-0.126,31.158,1.154,1
166,0.863,-0.491,0.905,0.241,31.789,1.042,1
176,0.223,0.079,-0.148,0.062,31.947,0.835,1
84,1.483,1.088,-0.23,0.157,35.105,0.841,0
128,1.281,-1.423,0.6,-0.625,37.053,0.779,0
145,1.332,1.01,-0.676,0.217,35.0,0.808,0
179,0.441,0.214,-0.057,0.114,36.158,0.708,1
133,1.328,-0.901,1.922,0.604,37.105,0.787,0
96,1.927,2.406,-2.017,0.337,37.421,0.76,0
166,0.164,-0.041,0.186,0.027,39.474,0.674,1
118,0.74,0.457,0.191,0.096,40.105,0.714,0
119,0.881,-0.308,0.549,-0.402,36.947,0.759,0
161,0.194,-0.152,0.057,0.027,35.421,0.801,1
112,1.183,0.135,0.319,-0.181,35.158,0.732,0
135,0.956,-0.179,0.092,0.015,34.368,0.735,0
157,0.734,0.117,-0.399,0.04,35.316,0.797,1
94,2.014,-2.478,1.401,-0.203,38.0,0.92,0
168,0.388,-0.108,-0.067,-0.124,39.737,1.039,1
145,0.589,0.072,-0.133,-0.062,40.105,0.964,0
177,0.197,-0.179,0.038,0.104,38.947,0.941,1
178,0.285,-0.044,0.235,0.122,38.316,0.854,1
137,1.79,-0.787,1.952,0.416,39.947,1.024,0
95,1.846,1.39,-0.257,0.645,37.316,1.013,0
132,1.393,-0.047,1.019,-0.815,36.947,0.959,0
161,0.655,-0.034,-0.037,0.082,37.579,1.071,0
170,0.464,-0.036,0.162,-0.098,36.263,1.029,1
183,0.257,-0.052,0.198,0.084,34.526,0.958,1
77,1.972,0.533,-2.212,-0.687,38.158,1.082,0
87,2.249,-0.642,-1.134,-0.152,35.0,1.194,0
100,2.297,-0.666,-0.844,0.338,33.158,1.292,0
175,0.191,-0.012,0.01,-0.03,37.053,1.208,1
135,1.177,-0.063,-0.027,-0.611,36.947,1.058,0
186,0.077,0.016,-0.047,0.021,37.053,1.026,1
183,0.037,-0.002,-0.013,0.005,36.0,1.052,1
94,1.991,-0.655,-2.371,-0.364,39.526,1.276,0
160,0.213,-0.132,-0.208,-0.079,39.684,1.381,1
160,0.822,0.352,-0.226,-0.171,35.789,1.17,0
155,1.04,0.979,-0.537,0.164,34.842,1.068,0
121,0.999,-0.451,-0.879,-0.15,34.947,1.081,0
164,0.895,-0.592,-0.178,-0.209,37.158,1.06,1
170,0.625,-0.077,0.335,0.343,35.316,1.094,1
176,0.067,-0.053,0.071,-0.037,33.421,1.132,1
153,0.626,0.164,0.348,0.102,32.684,0.904,1
152,0.565,0.199,-0.134,-0.077,31.211,0.736,1
167,1.033,0.945,-1.067,0.567,31.526,0.605,1
126,1.516,-0.955,0.689,0.624,33.0,0.704,0
96,2.122,0.414,-0.364,-1.346,29.0,0.802,0
175,0.047,-0.03,0.054,-0.018,32.632,0.816,1
137,1.366,0.063,1.329,0.799,33.947,0.936,0
114,1.618,-0.168,0.749,0.214,31.211,0.813,0
126,1.87,0.275,0.125,0.086,29.737,0.916,0
162,0.73,0.286,-0.498,0.265,28.947,0.967,0
107,1.529,1.076,0.61,0.89,31.684,1.052,0
125,1.386,1.277,-0.546,-0.157,27.947,1.108,0
92,1.525,1.24,1.071,0.061,26.211,1.133,0
181,0.527,0.031,-0.266,0.224,30.895,1.114,1
115,1.201,-0.153,-0.452,-0.104,34.105,1.206,0
89,1.882,1.207,0.103,-0.317,33.684,1.422,0
147,1.803,-1.023,-1.248,0.615,34.474,1.735,0
80,1.898,1.972,0.8,0.59,37.684,2.03,0
182,0.426,-0.0,-0.302,0.057,42.737,1.706,1
85,1.279,0.802,0.268,-0.114,46.632,1.512,0
176,0.245,-0.144,0.165,0.17,51.368,1.531,1
101,2.484,0.98,-1.893,1.468,54.526,1.465,0
134,1.574,-1.46,1.502,0.271,54.105,1.502,0
128,1.949,0.7,-1.076,-1.184,52.842,1.344,0
182,0.147,0.109,-0.085,0.072,51.526,1.313,1
141,0.464,-0.145,-0.095,0.06,51.684,1.204,1
135,1.246,-0.369,-0.935,0.008,50.789,1.166,0
150,0.363,-0.046,0.209,0.172,50.947,1.052,0
121,1.142,0.122,0.274,0.045,50.579,1.095,0
114,1.637,-1.765,1.464,-0.409,48.053,1.05,0
130,1.452,-0.634,1.886,0.519,47.947,0.957,0
166,0.342,0.038,0.285,0.013,48.105,0.826,1
173,0.092,-0.044,-0.004,-0.002,43.789,0.706,1
125,1.352,0.975,0.257,-0.019,42.842,0.791,0
153,0.798,0.273,0.268,-0.195,42.947,0.801,0
94,1.04,0.426,0.079,-0.069,43.0,0.834,0
190,0.191,0.097,-0.02,-0.061,44.526,0.676,1
155,0.671,-0.094,0.325,-0.059,41.0,0.633,1
75,1.928,0.484,-2.054,0.615,40.105,0.63,0
170,0.743,0.208,0.6,0.116,40.316,0.678,1
133,0.897,0.272,0.593,0.521,38.316,0.739,0
91,1.616,0.137,1.54,0.337,38.789,0.765,0
78,1.435,-0.181,-0.445,-0.236,39.158,0.877,0
133,1.132,-1.989,1.394,0.37,39.211,0.847,0
86,1.582,0.009,0.12,-0.349,39.526,0.824,0
161,0.905,1.142,0.324,-0.132,43.158,0.813,1
98,1.773,-0.086,0.056,-0.564,45.684,0.97,0
93,1.839,-0.368,-1.117,-0.436,44.421,1.206,0
91,2.146,1.785,-0.389,-1.676,44.158,1.186,0
136,1.452,-0.798,0.988,-0.607,45.684,1.266,0
84,1.949,-0.626,0.598,1.131,46.526,1.26,0
124,0.906,0.273,-0.189,-0.135,48.263,1.521,0
142,1.397,-0.051,0.419,-0.224,46.684,1.684,0
128,1.78,1.283,0.302,0.181,45.947,1.675,0
92,1.561,0.398,1.199,-1.038,44.737,1.662,0
136,1.302,0.311,-0.647,-0.391,42.0,1.639,0
87,1.625,-1.145,-0.193,1.008,42.737,1.597,0
148,0.78,-0.553,0.123,0.602,41.737,1.443,0
149,0.836,-0.407,0.604,-0.156,36.789,1.425,0
167,0.485,0.191,0.241,-0.038,35.789,1.358,1
114,1.641,-1.543,0.341,1.236,36.368,1.458,0
134,1.232,0.734,-0.671,0.024,36.737,1.296,0
175,0.239,-0.186,0.033,-0.054,36.0,1.08,1
164,0.198,0.027,0.128,0.013,34.105,0.93,1
183,0.406,-0.107,0.035,0.101,31.158,0.844,1
81,1.609,-0.787,-1.029,1.025,33.211,0.79,0
150,1.082,0.13,-0.967,0.031,36.579,0.771,0
149,1.181,0.757,0.428,0.816,36.526,0.735,0
148,0.796,0.095,-0.465,0.24,34.211,0.695,1
176,0.295,-0.084,-0.065,0.0,32.947,0.613,1
169,0.856,-0.406,-0.415,-0.435,31.211,0.582,1
90,1.833,-0.197,0.435,0.381,34.421,0.591,0
165,0.681,0.17,0.488,0.183,37.632,0.604,0
160,0.408,0.464,-0.232,-0.102,36.0,0.593,0
144,1.05,-0.402,0.069,0.024,34.526,0.651,0
140,1.38,-0.281,0.306,-0.051,32.158,0.617,0
140,1.293,-0.565,-0.227,-0.176,28.947,0.636,0
138,1.364,0.641,-0.353,0.167,29.0,0.747,0
95,1.899,0.162,-1.293,0.701,30.316,0.928,0
136,1.964,-0.424,-0.858,0.22,29.684,1.083,0
93,1.761,0.36,1.271,0.41,30.895,1.116,0
177,0.284,0.175,0.149,-0.097,33.158,1.054,1
182,0.23,0.249,-0.048,0.072,32.842,1.009,1
91,2.169,0.785,-1.107,1.617,36.632,1.167,0
138,1.414,0.32,-0.503,0.133,33.737,1.356,0
185,0.356,0.186,-0.067,-0.061,32.579,1.364,1
138,1.322,0.149,-1.099,0.315,35.0,1.305,0
88,1.892,-0.596,1.535,0.241,37.579,1.405,0
135,0.89,-0.669,-1.453,0.252,38.579,1.489,0
197,0.481,-0.052,-0.031,0.144,41.474,1.384,1
155,1.72,-0.394,0.526,-0.25,39.526,1.437,0
150,0.237,0.012,0.235,0.064,35.842,1.351,0
167,0.329,-0.024,-0.09,-0.016,36.474,1.174,1
75,1.677,0.482,0.684,0.075,40.474,1.037,0
176,0.15,-0.016,-0.197,0.008,45.579,0.843,1
152,1.542,-0.099,-0.42,-0.266,46.842,0.823,0
148,1.331,1.631,0.222,-0.009,46.947,0.923,0
137,0.812,0.141,-0.274,-0.346,45.263,1.014,0
174,0.35,-0.105,-0.164,-0.08,45.053,0.83,1
92,1.402,-0.554,-1.4,0.387,47.105,0.78,0
176,0.042,-0.002,-0.004,-0.004,47.105,0.784,1
123,1.152,-0.266,0.2,-0.308,49.632,0.797,0
93,1.854,1.45,0.652,-0.229,46.421,0.744,0
105,1.821,-0.698,-0.973,-0.465,44.579,0.773,0
117,0.935,0.089,-0.501,0.144,42.737,0.821,0
152,1.305,0.619,1.018,0.064,42.105,0.785,0
78,1.421,-1.528,-0.326,-0.053,43.368,0.897,0
95,1.76,0.426,-0.58,0.694,41.789,1.036,0
128,0.947,0.277,0.672,0.137,40.263,1.006,0
77,1.468,-1.234,1.163,0.131,40.737,1.217,0
171,0.153,-0.029,-0.056,-0.033,45.421,1.14,1
149,1.802,-1.065,1.519,-0.264,45.684,1.094,0
141,1.143,0.338,0.889,-0.38,41.263,1.076,0
78,2.144,0.184,-0.743,-0.389,39.263,1.334,0
76,1.664,-0.788,-0.007,-0.108,38.105,1.353,0
94,1.736,0.69,-0.841,0.523,38.842,1.503,0
160,0.422,0.04,-0.062,0.075,41.737,1.469,0
126,1.658,0.945,0.242,-0.762,41.579,1.459,0
158,0.671,0.317,-0.026,0.108,38.947,1.29,0
143,1.224,1.111,0.292,-0.199,35.316,1.271,0
147,1.182,0.71,0.988,0.252,32.737,1.298,0
176,0.359,-0.027,-0.123,-0.06,32.684,1.137,1
175,0.965,-0.815,0.172,0.469,32.105,0.999,0
100,1.547,-1.391,-0.085,-0.041,35.421,1.078,0
141,1.318,0.751,-0.802,0.335,35.737,0.992,0
131,1.199,0.691,0.333,-0.424,32.368,1.136,0
161,1.004,0.397,0.036,0.117,33.053,1.059,1
128,1.359,0.822,-0.448,-0.671,33.053,1.051,0
153,1.176,0.645,0.379,0.151,31.684,0.904,0
77,1.725,0.325,1.902,-0.604,30.737,0.895,0
95,1.772,-0.255,1.187,0.099,30.526,0.825,0
164,0.683,0.02,0.315,-0.125,33.737,0.867,1
139,2.045,1.537,-1.412,0.213,31.737,0.895,0
139,1.326,0.283,0.152,0.201,31.632,0.982,0
104,2.135,1.932,-0.319,1.602,32.526,1.014,0
137,0.675,0.224,-0.222,0.39,30.789,0.995,0
125,1.433,-1.464,0.474,-0.084,29.632,1.111,0
165,0.253,-0.315,-0.049,0.125,30.053,1.12,1
139,2.017,0.456,-0.121,-0.966,30.632,1.109,0
129,1.49,0.02,-1.257,-0.44,30.947,1.128,0
91,2.153,-0.275,-0.673,-1.021,31.421,1.116,0
111,1.373,-1.525,0.645,-0.28,32.421,1.185,0
131,1.365,-0.268,0.23,0.416,29.526,1.172,0
166,0.417,0.405,-0.028,-0.12,29.211,1.193,1
171,0.248,-0.102,0.03,0.057,28.947,1.105,1
125,0.931,0.108,0.639,-0.263,29.789,1.055,0
90,1.769,0.417,-0.783,0.096,29.895,1.1,0
160,0.842,0.739,0.227,0.243,32.263,1.011,0
158,0.75,0.364,-0.446,-0.142,28.368,0.945,0
182,0.363,-0.199,-0.125,-0.018,28.684,0.812,1
106,1.666,0.113,-0.363,-1.003,29.053,0.885,0
87,1.692,-0.413,1.493,-0.185,28.737,0.851,0
90,2.193,-0.295,1.131,0.053,28.895,0.981,0
132,1.349,0.135,0.338,0.226,29.263,0.924,0
132,1.67,-1.034,0.597,-0.296,27.526,0.925,0
158,0.575,0.466,0.306,-0.011,28.263,0.81,0
179,0.355,-0.04,-0.144,-0.117,27.263,0.749,1
172,0.394,-0.199,0.177,-0.017,26.263,0.704,1
131,1.164,-0.726,-0.424,-0.048,27.895,0.765,0
173,0.9,-0.397,0.894,-0.066,28.105,0.857,1
160,0.644,0.038,-0.022,0.065,27.737,0.88,0
138,1.445,1.16,0.32,-0.057,27.842,0.815,0
148,1.417,-0.081,-0.438,0.103,26.526,0.9,0
173,0.247,-0.325,0.195,-0.018,27.579,0.9,1
179,0.185,0.009,0.001,0.027,25.474,0.989,1
148,1.271,-0.725,-0.46,-0.15,25.263,0.908,0
154,0.391,-0.038,0.108,-0.021,21.895,0.819,0
134,1.392,1.515,-0.286,0.116,22.842,0.695,0
128,1.271,-0.845,-0.998,0.737,21.895,0.716,0
93,1.879,1.448,-2.736,-1.346,19.737,0.72,0
175,0.219,0.097,0.089,0.012,23.053,0.766,1
159,0.307,0.045,-0.201,-0.091,23.737,0.811,1
123,1.062,0.095,-0.131,-0.374,23.421,0.907,0
124,0.962,-0.148,-0.311,0.23,23.474,0.852,0
166,0.218,0.003,-0.044,-0.107,24.316,0.777,1
162,0.339,-0.239,-0.068,0.256,23.421,0.772,1
89,2.361,0.594,0.392,0.006,26.895,0.845,0
170,0.578,-0.542,-0.409,0.249,29.0,0.765,0
130,1.407,1.153,0.906,-0.231,28.895,0.861,0
90,1.337,0.132,1.762,0.198,30.316,0.943,0
159,0.911,0.109,-0.457,0.389,32.789,0.944,1
67,1.529,-0.35,0.501,-0.344,37.105,1.111,0
170,0.244,0.072,0.043,-0.146,41.211,1.092,1
167,0.52,-0.041,-0.163,-0.212,41.053,1.042,0
122,0.998,-0.351,-0.791,-0.636,41.789,0.96,0
169,0.895,0.141,-0.327,0.039,43.947,1.038,1
154,0.802,-0.207,-0.067,0.29,43.684,1.079,0
102,1.342,-0.849,0.102,-0.396,46.105,1.047,0
82,2.295,-0.989,-0.806,-0.854,45.316,1.161,0
127,1.52,-0.18,-0.424,0.02,43.368,1.323,0
146,0.72,0.046,-0.487,0.244,43.526,1.385,0
72,1.525,0.958,0.696,0.429,45.526,1.229,0
127,1.81,-0.436,0.74,-0.626,48.368,1.408,0
163,1.011,-1.252,-0.193,0.286,48.053,1.261,0
161,0.765,1.046,-0.022,-0.363,47.947,1.126,0
135,0.897,-0.621,-0.455,-0.296,45.474,1.153,0
177,0.29,0.125,0.04,-0.028,43.421,0.991,1
175,0.278,0.173,0.074,0.155,41.421,1.071,1
146,1.142,0.022,-0.461,0.077,40.842,1.174,0
139,0.757,0.183,-0.351,-0.114,37.579,1.235,0
94,1.089,1.334,0.193,-0.254,35.105,1.188,0
180,0.361,-0.088,-0.134,0.062,34.211,1.116,1
158,0.803,0.395,-0.435,0.228,35.211,1.057,0
152,0.507,0.232,0.156,0.202,33.158,0.854,1
103,1.762,0.896,-0.122,-0.204,33.263,0.803,0
175,0.435,-0.027,-0.166,0.101,36.263,0.769,1
159,0.752,-0.88,-0.031,0.052,34.368,0.762,0
151,0.974,0.734,0.553,-0.263,33.737,0.662,0
78,1.703,0.111,1.023,0.135,35.211,0.717,0
167,0.027,0.004,-0.009,-0.004,38.895,0.698,1
143,1.393,-1.32,-0.178,0.493,36.263,0.728,0
124,1.33,0.384,1.194,-0.197,34.368,0.852,0
85,1.837,-0.69,0.106,-0.327,34.526,0.949,0
171,0.117,-0.109,0.046,0.042,38.947,0.85,1
174,0.489,0.185,0.249,0.061,37.737,0.846,0
171,0.297,0.332,0.221,0.063,35.684,0.787,1
183,0.204,0.093,-0.171,0.064,36.211,0.799,1
178,0.204,0.064,-0.1,-0.033,34.947,0.788,1
127,1.426,-0.495,0.754,0.001,37.263,0.961,0
77,2.003,0.567,-1.061,0.881,37.526,0.961,0
141,0.649,-0.465,-0.373,-0.263,36.368,0.998,0
162,0.663,0.274,0.106,0.131,36.316,1.052,0
159,0.514,-0.182,-0.055,-0.141,36.158,1.087,0
150,0.808,-0.237,0.521,0.12,34.053,0.956,0
176,0.907,0.798,-0.029,-0.15,31.632,1.09,0
185,0.275,0.18,0.198,-0.09,31.263,0.955,1
166,0.743,-0.135,0.679,-0.305,31.842,0.836,1
113,1.121,0.249,0.393,-0.034,30.789,0.7,0
134,1.37,0.592,-0.788,0.359,27.211,0.843,0
159,0.64,0.107,-0.117,0.134,27.263,0.871,1
120,1.031,0.136,0.49,-0.177,28.316,0.982,0
173,0.166,0.022,0.008,0.0,29.053,0.991,1
166,0.581,-0.104,-0.156,0.203,24.895,1.072,0
78,2.346,-0.797,1.171,0.147,29.368,1.067,0
172,0.373,-0.003,0.397,-0.052,34.158,0.924,1
156,0.484,-0.057,-0.177,0.021,34.368,0.897,1
135,1.217,0.943,0.308,0.478,35.211,0.944,0
188,0.102,-0.071,0.112,-0.023,35.316,0.946,1
154,0.714,-0.865,-0.114,0.222,34.474,1.009,0
160,0.638,-0.092,0.003,0.317,31.421,0.919,1
127,1.034,0.479,0.221,0.391,32.053,1.071,0
96,1.405,-0.259,1.012,0.253,33.526,1.187,0
156,0.564,-0.986,-0.496,0.223,36.211,1.215,0
165,0.0,0.0,0.0,0.0,35.316,0.968,1
171,0.653,1.034,-0.634,-0.045,35.158,0.956,0
180,0.237,0.315,0.079,-0.076,34.632,0.837,1
136,1.374,-0.661,1.222,-0.117,34.158,0.936,0
86,1.452,0.172,0.349,0.243,35.684,0.976,0
63,1.996,-1.953,0.575,-0.632,35.579,0.886,0
99,2.02,1.251,1.895,-0.711,35.421,1.14,0
173,0.397,-0.167,-0.247,0.079,36.526,1.148,1
83,1.318,-1.006,-0.987,-0.116,40.895,1.106,0
92,1.953,1.491,0.148,-0.275,36.737,1.295,0
150,1.112,-0.266,0.83,-0.041,34.842,1.338,0
164,0.891,-0.021,0.262,0.146,34.737,1.39,1
94,1.907,0.093,-0.043,1.366,37.316,1.376,0
169,0.708,-0.116,0.428,0.11,38.474,1.254,1
69,2.434,-1.153,-0.003,0.025,41.947,1.457,0
175,0.462,-0.014,0.037,-0.016,47.211,1.675,1
153,0.707,0.326,-0.265,-0.657,46.632,1.677,1
161,0.728,-0.474,-0.072,-0.18,45.421,1.851,1
176,0.209,-0.067,0.037,-0.094,43.053,1.561,1
170,0.832,-0.632,0.336,0.096,42.895,1.403,0
92,2.107,-0.253,-1.301,0.314,46.684,1.453,0
153,0.703,-0.411,0.01,0.156,49.421,1.186,1
164,0.328,-0.005,0.237,-0.108,47.684,1.188,1
158,0.216,0.151,-0.013,-0.136,45.368,1.1,1
165,0.57,-0.251,-0.106,-0.151,44.526,0.883,1
128,1.446,-1.691,-1.779,0.321,44.579,0.882,0
133,1.413,-0.729,-0.688,0.671,40.947,0.9,0
87,2.228,-0.561,1.011,-1.279,38.632,0.873,0
86,1.924,-0.394,1.001,-0.543,38.211,0.983,0
184,0.234,-0.026,-0.119,-0.001,40.316,0.765,1
96,1.74,-1.783,0.347,0.526,44.211,0.813,0
185,0.337,-0.24,0.119,0.063,45.211,0.792,1
125,1.161,-0.581,-1.009,0.086,44.421,0.794,0
106,2.006,-0.17,1.404,0.319,40.158,0.943,0
125,1.214,0.216,0.286,0.017,35.579,0.997,0
119,1.459,0.13,1.035,1.026,34.737,0.955,0
83,1.925,-0.319,0.31,-0.604,36.211,1.105,0
125,1.277,-1.291,0.146,-0.014,37.632,1.168,0
84,1.845,0.049,1.392,1.436,39.474,1.358,0
101,1.618,-0.985,-1.301,0.21,36.263,1.569,0
95,1.984,-0.886,-0.493,0.265,33.368,1.57,0
153,0.53,0.151,-0.135,0.079,35.842,1.454,0
82,2.283,0.312,0.871,-0.563,39.263,1.427,0
120,1.298,-0.512,-0.198,-0.377,40.895,1.282,0
143,1.481,-0.348,-0.904,-0.457,40.158,1.571,0
157,0.52,0.188,0.084,-0.128,40.632,1.361,0
103,1.242,0.084,0.638,-0.157,41.053,1.455,0
171,0.385,0.299,0.384,0.035,44.579,1.364,1
150,0.773,-0.208,0.111,-0.299,40.526,1.15,1
133,1.285,-0.19,1.653,0.345,36.789,1.129,0
156,0.809,-0.089,0.091,0.094,33.316,1.134,0
90,2.095,-1.76,0.738,-0.129,33.632,1.067,0
112,2.16,-1.632,1.02,0.663,33.789,1.06,0
85,1.872,1.408,0.887,0.545,34.211,0.979,0
100,1.859,0.535,-0.078,-0.633,34.684,0.943,0
133,1.263,0.234,-0.497,-0.089,34.526,0.888,0
168,0.562,0.516,-0.027,-0.17,34.158,0.926,1
109,1.432,-1.928,-0.439,0.49,35.105,0.884,0
120,1.566,0.269,-0.138,0.265,34.789,0.923,0
173,0.717,-0.144,-0.903,0.147,37.263,0.837,1
81,1.079,0.202,1.154,-0.528,39.053,0.912,0
160,0.615,-0.167,-0.362,-0.153,39.474,0.846,1
168,0.798,-0.083,-0.156,0.014,37.895,0.896,1
162,0.702,-0.1,0.332,0.027,37.0,0.949,0
165,0.454,0.042,0.109,-0.008,36.421,0.903,1
82,1.059,-1.064,-1.16,0.333,37.947,0.947,0
102,1.804,-1.338,1.358,0.396,35.421,0.924,0
181,0.273,0.148,-0.077,0.002,38.474,0.791,1
111,1.594,1.553,0.366,0.239,41.263,0.776,0
73,2.252,-0.703,-0.02,-1.217,42.053,0.786,0
148,1.244,0.544,0.262,0.128,42.526,0.813,0
87,1.702,0.756,0.132,-1.014,44.579,0.869,0
177,0.208,-0.038,0.13,-0.021,47.895,0.844,1
118,1.343,0.183,0.247,0.001,50.211,0.821,0
120,1.234,0.451,-1.152,0.074,48.579,0.883,0
178,0.404,0.021,0.423,0.249,49.789,0.821,1
90,1.479,0.849,2.063,-0.008,51.316,0.896,0
95,2.161,0.237,0.813,-0.18,51.0,0.949,0
76,2.311,-0.16,-0.48,0.617,49.211,1.038,0
171,0.331,-0.119,0.011,-0.067,49.368,1.079,1
100,1.951,0.291,0.091,0.234,48.947,1.113,0
137,1.323,-0.813,0.196,-0.395,50.474,1.104,0
134,0.879,-0.071,0.274,0.441,50.316,1.272,0
155,0.553,-0.55,-0.085,-0.012,51.263,1.228,0
83,1.983,-0.06,-0.987,0.35,50.684,1.182,0
182,0.294,0.149,0.069,0.04,54.842,1.124,1
141,1.165,-0.311,-0.39,0.221,52.842,1.019,0
83,2.11,-0.516,1.15,0.078,52.211,1.215,0
182,0.132,-0.008,0.079,-0.049,55.421,1.156,1
180,0.163,-0.001,0.013,0.143,51.579,1.054,1
70,1.598,2.446,0.623,-0.422,54.158,1.175,0
104,1.57,-1.063,0.292,-0.6,51.211,1.119,0
103,1.5,-1.855,0.982,0.699,48.158,0.997,0
70,1.866,-0.5,-0.225,0.206,49.789,0.892,0
146,1.354,0.207,-0.505,-0.326,50.737,0.95,0
65,1.967,-0.698,-2.179,-0.253,50.368,0.91,0
140,1.486,-0.522,-0.311,0.118,54.053,0.94,0
158,1.176,0.584,0.074,0.49,54.0,0.927,0
91,1.476,-0.155,0.354,0.16,52.526,1.024,0
95,1.547,0.596,0.029,-1.081,49.0,1.016,0
158,0.514,0.408,0.052,0.068,50.368,1.081,1
156,1.062,0.322,0.254,-0.277,50.316,1.108,1
118,1.661,0.179,0.835,-0.051,51.211,0.977,0
153,0.695,0.607,-0.25,-0.325,49.263,1.072,1
179,0.316,-0.076,0.155,-0.052,45.421,1.148,1
126,1.055,-0.718,-0.261,-0.234,46.053,1.044,0
144,0.55,0.09,0.138,0.197,43.947,0.984,1
81,1.691,-0.882,-0.614,0.372,42.053,1.031,0
76,2.017,1.562,3.132,-0.726,42.211,1.066,0
182,0.361,-0.237,0.132,-0.225,42.0,0.953,1
83,1.998,1.231,0.719,0.97,45.421,0.954,0
163,0.924,-0.291,0.873,0.127,49.579,0.915,0
130,0.74,0.894,0.25,0.17,49.579,0.878,0
172,0.224,0.146,-0.017,-0.057,47.789,0.774,1
99,1.576,1.803,-1.358,-0.123,47.368,0.793,0
83,1.347,-0.178,-0.157,0.218,44.263,0.826,0
96,1.828,0.192,-1.059,-0.039,44.0,0.87,0
184,0.198,0.026,0.057,-0.104,45.105,0.814,1
149,1.245,-0.751,-0.729,-0.111,46.737,0.819,0
131,1.196,0.553,-0.756,0.153,44.368,0.857,0
146,1.031,0.161,-0.015,-0.049,45.053,0.88,0
129,0.7,0.014,0.258,0.079,43.947,0.937,0
180,0.286,0.218,0.034,-0.071,44.789,0.851,1
115,0.758,-0.125,-0.021,0.026,46.842,0.776,0
83,1.813,-0.257,-0.356,-1.318,45.737,0.903,0
149,0.602,0.574,0.387,-0.13,48.263,0.822,0
79,1.78,0.461,0.79,1.373,48.632,0.899,0
164,0.198,0.064,0.078,-0.064,52.842,0.89,1
145,1.307,1.059,-1.186,-0.522,48.263,1.033,0
142,0.918,-0.814,0.132,0.202,43.211,0.988,0
90,1.556,-0.801,-1.47,0.143,41.737,0.951,0
170,0.165,0.001,-0.151,0.057,44.211,0.81,1
169,0.222,0.078,-0.09,0.058,42.053,0.888,1
82,1.685,-1.998,-0.577,-0.596,42.789,0.885,0
59,2.033,-0.208,-2.936,-0.889,43.158,0.888,0
85,1.832,-0.379,0.756,-0.337,43.842,0.937,0
162,0.197,-0.083,-0.113,-0.025,43.263,0.899,1
171,0.115,0.122,0.022,-0.049,41.895,0.969,1
159,0.604,0.353,0.507,-0.114,41.579,1.043,1
131,0.706,-0.114,-0.005,0.336,42.263,0.878,0
138,1.375,-0.269,0.103,0.625,41.737,1.016,0
93,1.924,-0.338,-3.023,-0.745,41.421,0.968,0
85,2.13,2.504,0.576,0.053,38.421,1.135,0
135,1.459,-0.102,-1.202,0.423,39.368,1.067,0
85,2.106,-0.479,2.632,0.272,38.526,1.191,0
77,2.162,-2.914,2.052,-0.264,35.263,1.214,0
178,0.112,-0.032,0.056,-0.035,36.105,1.357,1
64,1.564,-0.736,1.688,0.403,41.105,1.452,0
185,0.098,0.03,0.037,-0.036,47.316,1.296,1
116,1.1,-0.515,-0.41,0.284,48.211,1.161,0
101,1.804,-0.194,-0.119,0.699,44.789,1.101,0
154,0.792,0.618,-0.502,-0.084,47.526,1.176,1
165,0.374,0.275,-0.044,-0.041,43.526,1.206,1
114,1.638,0.638,1.612,-0.581,45.0,1.287,0
88,1.992,-0.076,-1.734,0.045,45.0,1.482,0
184,0.066,-0.124,0.008,-0.005,46.0,1.315,1
90,2.007,1.31,0.833,0.164,50.474,1.308,0
80,1.435,-0.007,-0.411,-0.483,50.368,1.116,0
126,1.358,-1.099,0.013,0.774,51.316,1.1,0
168,0.532,0.389,-0.206,-0.437,53.158,0.941,1
147,0.89,-0.402,0.204,0.3,51.895,0.842,0
167,0.106,0.044,0.031,-0.01,52.526,0.844,1
140,1.366,-1.042,-0.31,0.368,51.316,0.778,0
178,0.268,-0.067,0.138,0.012,50.684,0.854,1
100,1.828,-0.56,-2.801,-0.092,54.368,0.941,0
131,1.275,0.133,1.525,-0.174,50.684,0.912,0
107,1.771,0.348,1.012,-0.431,45.947,0.937,0
180,0.285,-0.08,0.035,-0.009,43.421,0.918,1
153,0.841,0.673,0.294,-0.081,41.211,0.828,1
181,0.0,0.0,0.0,0.0,41.895,0.68,1
174,0.456,-0.048,0.023,-0.018,39.474,0.746,1
148,1.268,-1.232,-0.209,0.332,40.263,0.705,0
159,0.516,-0.218,0.204,-0.245,38.158,0.682,1
135,1.508,0.648,-1.566,0.604,38.053,0.694,0
149,1.921,1.48,-4.079,0.26,33.737,0.839,0
129,1.408,-0.421,-0.804,-0.144,29.842,0.94,0
128,1.079,-1.111,-0.888,-0.068,29.368,1.002,0
104,1.821,-1.908,0.362,-0.572,28.211,1.044,0
162,0.728,-0.175,-0.325,-0.023,29.053,1.062,1
96,1.623,-0.073,-1.966,0.267,31.421,1.003,0
146,1.39,-0.645,1.583,0.036,33.0,1.043,0
122,1.339,-0.278,-0.107,0.058,32.842,0.957,0
180,0.224,0.075,-0.256,-0.029,33.895,0.959,1
155,1.47,-0.912,-0.282,-1.061,31.105,1.046,0
136,1.284,-0.112,0.033,0.394,30.474,1.286,0
132,1.364,-0.273,1.058,0.798,29.421,1.314,0
93,1.502,0.018,-1.321,-0.797,27.632,1.402,0
180,0.299,0.135,-0.223,-0.002,30.789,1.486,1
177,0.127,0.106,-0.103,-0.007,29.474,1.362,1
122,1.59,-0.645,-1.817,0.123,32.0,1.206,0
136,1.204,0.453,-0.058,0.074,31.368,1.15,0
115,1.183,0.13,-0.408,-0.219,31.895,1.086,0
162,0.439,-0.576,0.072,0.112,33.105,0.971,0
119,1.259,0.446,-0.081,0.733,34.632,0.976,0
131,0.79,0.878,-0.124,-0.041,34.211,0.937,0
94,2.729,-0.423,0.835,-0.532,36.105,1.011,0
180,0.32,0.367,-0.417,-0.006,39.368,0.976,1
149,2.111,-0.292,1.397,0.913,37.947,1.096,0
80,1.878,0.06,-0.925,0.878,38.105,1.079,0
72,1.425,-0.227,0.029,0.115,35.895,1.01,0
154,0.644,-0.231,-0.647,-0.021,38.947,0.924,1
178,0.074,0.013,0.014,0.015,37.158,0.838,1
91,1.674,-1.913,1.451,-0.617,40.421,0.92,0
155,0.409,0.458,0.177,-0.067,42.789,1.009,1
112,1.425,-0.761,0.536,-0.388,44.842,1.018,0
153,0.633,-0.197,-0.114,-0.12,44.947,0.997,0
150,0.892,-0.303,-0.321,-0.176,40.526,0.974,1
126,1.4,-0.753,-1.143,0.516,41.632,1.12,0
147,0.776,0.045,-0.473,-0.385,39.842,1.054,1
156,0.404,0.406,-0.035,-0.205,39.579,1.086,0
132,1.515,-1.271,-1.382,0.205,39.737,0.927,0
168,0.904,-0.289,0.02,0.296,39.158,1.024,0
160,1.289,-1.539,-0.522,-0.071,37.316,0.868,0
121,1.801,-0.974,0.547,-0.047,38.737,0.844,0
159,0.719,0.344,-0.808,0.139,38.789,0.799,0
121,1.349,-0.86,-0.094,0.246,36.263,0.872,0
143,1.35,0.957,0.327,-0.392,35.789,1.029,0
153,0.668,-0.215,0.671,0.089,32.684,0.89,1
151,1.838,2.302,0.78,-0.193,32.368,0.957,0
87,1.8,-1.668,0.532,0.45,31.421,0.987,0
151,0.357,0.029,0.005,-0.077,33.526,1.004,0
182,0.276,0.019,0.287,-0.081,30.579,0.985,1
125,1.932,0.04,-1.594,0.793,30.211,0.961,0
161,0.546,0.107,0.32,0.0,29.842,0.975,1
177,0.212,-0.148,0.018,0.019,28.526,0.986,1
150,0.748,0.218,0.042,-0.233,29.789,1.013,1
172,0.586,0.175,0.265,0.165,29.684,0.957,1
77,2.059,0.212,1.424,-0.752,33.579,1.059,0
75,2.143,-0.854,-1.321,-0.923,33.211,1.086,0
128,1.642,-0.825,-0.058,0.22,34.737,1.202,0
170,0.273,0.023,0.32,0.065,35.053,1.076,1
138,1.375,0.329,2.056,-0.113,36.316,0.995,0
133,1.213,-0.402,0.112,-0.016,34.526,1.094,0
130,0.81,-0.206,0.244,-0.216,32.684,0.941,0
127,0.993,-0.426,0.091,0.175,30.842,0.874,0
165,0.891,0.651,-0.19,0.029,31.684,0.92,1
160,1.007,0.521,-0.811,0.227,31.421,0.999,0
139,1.402,1.262,0.063,0.431,32.421,0.936,0
153,1.444,2.011,0.523,-0.393,29.789,1.003,0
159,0.533,0.351,-0.109,0.085,26.737,1.034,0
161,0.791,-0.509,0.618,0.175,25.211,1.087,1
150,1.765,0.339,1.293,0.071,22.789,1.185,0
77,1.603,-0.736,-0.091,-0.065,24.737,1.101,0
182,0.325,0.018,-0.032,-0.085,29.421,0.969,1
187,0.504,0.214,0.069,0.094,28.263,0.853,1
78,1.46,0.307,-0.784,0.466,32.842,0.981,0
120,1.406,-0.733,0.898,-0.402,30.053,0.981,0
163,0.659,-0.407,-0.334,0.175,32.211,0.917,0
177,0.265,-0.121,0.033,0.122,30.158,0.942,1
153,0.412,0.204,0.075,-0.068,29.211,0.954,0
122,1.55,-1.09,-1.154,0.013,29.158,0.964,0
135,1.155,-0.032,-0.011,0.237,29.579,0.93,0
150,1.963,-0.428,-1.688,0.76,30.211,0.996,0
98,1.568,-0.819,0.682,0.211,32.789,0.95,0
117,1.187,-1.194,0.077,-0.691,31.789,0.97,0
145,1.774,-0.651,1.209,-0.082,33.0,1.025,0
182,0.058,-0.047,-0.014,0.039,33.842,0.866,1
152,0.893,-0.164,-0.39,-0.027,34.684,0.849,1
140,1.65,-0.023,1.266,0.536,35.0,1.027,0
151,0.692,-0.785,-0.594,-0.099,35.474,1.118,1
75,2.107,-1.597,-1.732,0.056,38.895,1.076,0
146,0.951,0.903,-0.228,0.037,38.789,1.046,0
111,1.242,-0.375,0.418,-0.598,35.105,1.12,0
123,1.304,-0.936,-0.208,0.536,35.474,1.23,0
140,1.537,-1.568,-0.062,0.089,30.632,1.357,0
99,2.049,-0.776,0.358,-0.223,30.579,1.331,0
147,1.294,0.792,-1.838,0.307,30.842,1.327,0
78,1.735,-0.978,1.387,0.484,33.737,1.266,0
96,1.666,0.371,0.495,0.196,33.421,1.262,0
156,0.361,0.218,0.006,-0.114,34.947,1.163,0
156,0.259,0.118,0.041,-0.03,34.263,1.011,0
79,2.225,1.032,-0.211,0.206,37.526,1.257,0
178,0.186,0.227,0.04,-0.016,40.0,1.269,1
92,1.691,0.753,-0.093,-0.549,43.526,1.169,0
159,0.609,-0.442,0.021,0.021,45.579,1.151,1
161,0.516,0.199,-0.322,0.108,43.737,1.017,0
143,1.5,1.287,-0.206,0.203,43.105,1.076,0
99,1.521,-1.035,-0.317,-0.267,44.789,1.056,0
98,1.771,0.326,-0.585,-0.327,44.263,1.022,0
179,0.055,0.032,-0.027,0.014,44.526,0.888,1
176,0.543,0.359,0.233,0.379,40.947,0.792,0
128,1.298,0.76,0.314,0.178,41.632,0.786,0
129,0.876,-0.272,0.325,0.366,41.053,0.752,0
136,0.915,0.394,0.098,-0.065,40.526,0.711,0
96,1.667,0.139,-0.045,-0.463,40.474,0.809,0
159,0.895,0.335,-0.628,-0.194,41.263,0.914,0
160,1.547,-0.012,-0.318,-0.278,37.684,0.781,0
144,0.304,-0.273,0.165,0.046,37.579,0.816,1
103,2.336,-0.345,-3.226,-0.575,36.579,0.847,0
85,1.894,-0.77,0.45,0.08,37.526,0.918,0
158,0.92,0.016,0.238,-0.071,37.316,1.024,1
149,0.597,-0.045,-0.454,0.079,32.579,0.943,1
145,1.526,-1.779,-0.003,-0.728,28.263,0.929,0
154,0.566,-0.178,0.299,-0.244,25.211,0.842,1
77,2.077,0.919,-0.88,0.224,29.158,1.03,0
135,1.169,0.128,0.308,-0.034,31.263,1.167,0
127,1.191,0.69,0.97,0.176,29.368,1.16,0
88,1.947,-0.268,-1.329,-0.48,31.368,1.297,0
141,1.042,-0.886,-1.043,-0.068,29.895,1.373,0
122,0.856,-0.688,0.069,-0.084,30.737,1.207,0
141,1.15,-0.044,0.976,0.33,29.211,1.175,0
118,1.535,-0.827,-0.706,-0.212,30.368,1.226,0
90,2.021,1.094,-0.396,-0.991,31.474,1.326,0
79,1.348,-0.812,-0.956,0.403,29.947,1.213,0
165,0.672,-0.487,0.326,-0.171,31.158,1.055,0
85,1.179,0.702,2.023,0.105,35.316,1.046,0
147,1.027,-0.15,0.182,0.214,37.737,1.126,0
110,1.371,-0.819,-1.179,0.05,37.526,1.117,0
139,1.696,0.11,-0.923,0.488,38.105,1.272,0
165,0.795,-0.372,-0.032,-0.085,35.632,1.058,1
121,1.498,0.717,0.158,-0.57,37.474,1.04,0
188,0.377,0.111,-0.277,0.161,40.789,1.002,1
151,0.958,0.084,-0.405,0.487,42.263,0.896,0
136,0.743,-0.63,0.399,-0.388,39.0,0.875,0
175,0.246,0.003,-0.118,0.043,38.0,0.881,1
163,0.656,0.027,-0.27,0.161,38.211,0.843,1
155,0.602,0.101,-0.965,-0.316,36.579,0.795,0
88,1.334,1.254,0.592,-0.162,37.316,0.696,0
159,0.931,-0.548,0.366,-0.2,40.053,0.71,0
177,0.239,0.16,0.098,0.101,40.0,0.733,1
186,0.216,0.09,-0.008,-0.194,39.263,0.672,1
151,0.744,0.575,0.225,-0.008,39.632,0.643,0
177,0.606,-0.502,0.08,-0.209,40.421,0.608,1
123,1.214,0.178,-0.197,-0.562,38.737,0.55,0
131,1.763,0.547,1.34,-1.076,34.947,0.638,0
150,0.332,0.265,0.08,-0.145,32.684,0.567,0
119,1.318,0.721,0.333,-0.024,32.368,0.643,0
167,0.347,-0.354,0.043,-0.082,33.368,0.644,1
96,2.089,-1.537,2.753,0.481,35.737,0.734,0
159,0.254,0.287,-0.362,0.015,36.737,0.761,0
121,1.257,1.143,0.31,0.088,35.211,0.822,0
121,1.182,-0.541,-0.539,-0.14,33.263,0.91,0
83,1.841,-0.347,-1.762,0.019,34.474,0.988,0
133,1.044,-0.419,-0.613,0.563,35.053,1.026,0
96,2.343,0.926,1.525,0.244,36.368,1.212,0
126,0.919,0.847,-0.061,0.082,37.526,1.36,0
176,0.298,-0.073,-0.285,-0.168,36.632,1.355,1
91,1.584,-0.878,-1.191,-0.102,37.368,1.528,0
175,0.275,0.217,0.212,0.012,40.842,1.51,1
177,0.344,0.16,0.006,-0.092,40.474,1.272,1
94,1.653,-0.095,-1.102,-0.62,43.0,1.528,0
137,0.773,-0.323,0.22,-0.163,43.895,1.361,0
97,1.854,-0.969,-0.654,0.73,43.158,1.569,0
167,0.474,-0.234,-0.023,0.114,46.421,1.274,1
164,0.11,-0.016,-0.077,-0.014,45.579,1.262,1
135,1.505,0.966,0.66,0.109,45.474,1.223,0
104,1.885,-2.221,0.521,0.593,44.579,1.223,0
159,0.907,0.322,0.181,-0.678,43.737,1.114,1
169,0.094,0.014,-0.04,-0.048,40.947,1.04,1
147,0.729,-0.298,-0.167,0.083,40.105,0.81,1
182,0.283,0.499,-0.175,-0.145,41.947,0.74,1
130,0.846,-0.404,0.335,-0.107,42.684,0.792,0
80,1.955,-0.594,-0.211,0.525,42.684,0.77,0
173,0.23,-0.208,0.148,-0.006,45.632,0.81,1
176,0.732,-0.001,-0.005,0.053,44.211,0.91,1
139,0.663,0.164,0.849,0.056,43.526,0.779,0
143,1.428,-0.143,-1.019,0.719,39.263,0.845,0
81,2.062,0.401,1.019,-0.102,38.105,0.785,0
176,0.213,0.001,-0.171,-0.097,43.0,0.848,1
182,0.348,-0.236,-0.229,0.072,38.947,0.87,1
73,1.591,0.513,0.528,1.073,42.421,0.862,0
152,0.644,0.475,0.101,-0.329,44.474,0.753,0
124,1.262,-0.689,0.526,-0.142,42.263,0.819,0
76,1.254,0.893,1.273,-0.875,44.632,0.948,0
70,1.356,-0.002,-0.442,0.81,43.421,1.109,0
174,0.589,-0.255,-0.529,-0.002,47.263,1.188,1
81,1.673,0.294,1.833,-0.243,49.263,1.201,0
163,0.886,-0.941,-0.043,-0.032,53.053,1.091,0
108,1.545,2.263,0.405,0.043,54.789,1.19,0
140,1.522,0.116,-0.469,0.435,54.632,1.214,0
90,1.282,0.017,1.303,0.058,54.526,1.354,0
176,0.347,-0.26,0.198,-0.019,56.421,1.21,1
189,0.276,-0.002,0.17,0.091,52.211,1.063,1
81,2.097,-0.38,-0.839,0.979,57.737,1.222,0
76,1.53,0.506,-0.673,-0.138,56.053,1.286,0
115,1.286,0.162,1.305,0.596,57.895,1.257,0
127,1.271,0.771,2.691,-0.475,55.263,1.428,0
140,1.177,0.382,-0.761,-0.226,50.947,1.383,0
146,1.317,0.334,-0.368,-0.145,50.947,1.275,0
138,1.142,-0.487,0.269,-0.565,45.632,1.207,0
126,1.649,1.057,-1.272,-0.538,42.105,1.252,0
165,1.177,0.163,0.505,0.107,42.684,1.157,0
94,1.585,-1.933,-1.257,0.01,43.895,1.286,0
78,2.277,-0.193,-0.184,-1.158,44.421,1.227,0
183,0.298,0.259,-0.082,-0.038,44.474,1.098,1
170,0.379,-0.292,0.154,0.187,40.263,1.009,1
112,1.569,-0.346,0.662,-0.627,39.0,1.148,0
149,1.052,-0.79,1.009,-0.204,38.053,1.339,0
167,1.329,0.891,0.185,0.199,37.316,1.142,0
86,1.869,0.138,-0.846,1.09,38.947,1.085,0
89,2.048,-1.31,-0.063,1.175,34.579,1.148,0
148,1.39,0.22,-0.599,0.713,37.0,1.114,0
149,0.962,0.226,-0.482,-0.325,31.368,1.108,1
75,1.379,1.731,-0.019,-0.024,35.0,1.108,0
184,0.344,-0.221,0.232,-0.029,38.684,1.076,1
175,0.249,0.06,0.118,-0.133,38.526,0.943,1
88,1.958,0.062,0.09,0.348,42.421,1.01,0
171,0.969,0.84,0.255,0.095,46.474,0.941,1
89,1.544,1.195,0.051,0.949,50.368,0.87,0
115,1.332,-0.344,-0.265,0.127,51.105,0.982,0
150,0.765,-0.026,0.116,-0.14,50.895,1.054,0
155,1.021,0.75,-0.149,0.265,47.421,0.957,0
107,1.065,0.49,-0.265,0.147,49.105,0.92,0
116,0.727,0.336,0.488,-0.299,44.053,0.926,0
184,0.282,0.024,-0.293,-0.023,46.947,0.828,1
159,0.897,0.931,-0.383,0.032,45.211,0.739,1
74,2.0,-0.158,-0.946,-1.157,47.737,0.765,0
164,0.426,0.301,0.33,0.178,51.526,0.746,1
164,0.669,-0.607,0.215,-0.12,47.263,0.709,1
121,1.341,-1.518,0.043,0.348,49.368,0.79,0
175,0.504,0.204,-0.518,0.41,49.105,0.866,0
134,1.09,-0.146,-0.823,0.287,51.211,0.783,0
166,0.235,-0.334,0.05,-0.069,49.0,0.769,1
178,0.063,-0.035,-0.034,0.026,43.895,0.716,1
188,0.213,-0.108,0.088,-0.028,43.947,0.615,1
172,0.22,-0.218,-0.011,-0.025,40.211,0.573,1
160,0.825,-0.278,0.029,0.179,36.474,0.58,1
167,0.211,0.065,-0.083,-0.039,32.526,0.532,1
180,0.303,0.018,-0.45,-0.15,31.842,0.527,1
132,1.393,0.398,0.493,-1.108,32.526,0.648,0
144,1.51,0.713,0.844,-0.274,32.895,0.739,0
121,1.65,-0.767,-0.846,-0.2,31.579,0.688,0
120,1.897,-0.025,-0.889,0.071,31.158,0.811,0
189,0.202,-0.03,-0.02,0.037,31.211,0.818,1
154,0.912,-0.227,-0.396,0.086,31.737,0.736,1
86,1.86,0.11,2.799,0.971,30.842,0.812,0
131,0.692,0.066,0.014,-0.017,28.474,0.833,0
167,0.653,0.338,0.696,-0.29,30.368,0.907,1
161,1.035,0.175,0.925,-0.394,28.421,1.093,0
148,0.887,0.905,0.926,0.023,26.263,1.261,0
121,0.778,0.517,-1.062,-0.048,25.526,1.377,0
121,1.415,-0.013,1.391,0.458,23.842,1.459,0
137,1.518,-0.572,1.172,-0.117,24.053,1.722,0
138,1.001,-0.56,-0.113,-0.106,23.579,1.876,0
96,1.611,-0.114,0.015,-0.927,24.947,1.696,0
75,2.157,1.343,1.253,0.606,25.421,1.66,0
97,2.346,-0.117,0.913,-0.411,26.211,1.78,0
192,0.25,-0.122,0.153,0.049,30.526,1.428,1
158,0.569,0.148,-0.684,0.149,29.789,1.517,0
164,1.571,-0.213,1.354,-0.332,29.474,1.634,0
155,1.201,-0.058,-0.016,-0.003,28.737,1.405,0
152,0.95,-0.602,-0.04,0.539,28.842,1.472,1
160,0.186,-0.07,-0.109,0.007,25.632,1.386,1
85,2.109,-0.941,-1.452,-0.486,27.737,1.366,0
85,1.902,0.521,-3.474,0.583,24.158,1.373,0
186,0.246,-0.014,-0.107,-0.033,27.105,1.285,1
137,0.716,-0.48,0.661,-0.199,27.789,1.191,0
149,1.173,0.026,-0.106,-0.272,28.105,1.077,0
175,0.274,0.078,0.117,0.097,28.789,0.992,1
139,1.32,-1.209,1.412,0.9,29.263,0.963,0
161,0.76,-0.124,-0.212,0.276,30.421,0.852,1
134,1.12,0.277,0.572,-0.306,31.0,0.757,0
77,1.554,1.235,-0.89,0.402,33.947,0.904,0
69,1.649,1.166,1.297,0.427,32.158,0.946,0
92,2.068,-1.586,-0.356,-0.383,32.263,0.939,0
171,0.354,0.162,0.367,-0.05,35.263,0.926,1
141,0.933,1.109,-0.249,0.337,31.842,0.912,0
161,0.814,0.194,0.413,-0.084,31.105,0.972,1
86,1.894,0.499,0.947,0.729,34.737,0.905,0
135,1.114,-0.589,2.19,0.18,36.842,0.817,0
180,0.387,-0.146,0.133,-0.013,39.053,0.848,1
158,0.897,-0.127,-1.009,0.317,39.789,0.89,0
131,0.788,0.299,0.033,-0.182,37.263,0.885,0
104,1.794,-0.267,-0.461,-0.006,38.684,1.011,0
164,0.347,-0.068,-0.244,0.021,36.526,0.971,0
74,1.431,0.026,0.998,0.336,38.684,1.101,0
82,1.783,-1.619,0.675,0.944,38.474,1.241,0
194,0.471,0.369,0.16,-0.018,43.0,1.069,1
166,0.603,0.145,0.148,0.108,42.579,0.937,1
123,0.983,-0.619,-0.537,0.224,43.684,0.847,0
81,1.961,-0.297,-0.447,-0.275,44.474,0.989,0
66,1.446,-0.999,1.831,-0.373,42.263,1.021,0
93,1.712,-0.708,-1.44,0.189,43.263,1.036,0
145,1.271,1.32,-1.713,0.075,44.789,1.012,0
143,1.405,-0.304,0.525,0.348,40.737,1.08,0
168,0.275,0.133,-0.044,-0.064,40.474,1.064,1
133,1.188,0.351,-0.765,-0.15,41.263,1.07,0
96,1.818,0.133,0.822,0.054,39.263,1.161,0
124,1.277,-1.173,0.604,0.061,38.158,1.03,0
120,1.365,-0.381,-0.964,0.192,36.0,1.153,0
137,1.835,-1.787,-1.051,0.336,35.737,1.131,0
161,0.685,-0.325,-0.076,0.121,35.579,1.027,1
169,0.045,0.034,0.017,0.001,34.579,1.068,1
85,1.414,-1.105,-1.739,-0.162,35.842,1.192,0
96,1.788,0.853,1.447,0.568,31.684,1.335,0
94,2.379,0.066,1.69,0.22,31.368,1.229,0
93,2.375,-2.174,-1.645,0.609,25.526,1.246,0
138,1.192,0.853,-0.1,-0.188,26.421,1.153,0
146,1.562,0.34,-1.613,-0.168,24.579,1.213,0
120,1.315,1.16,0.299,-0.233,23.737,1.187,0
126,0.88,-1.137,-0.016,-0.148,23.263,1.23,0
75,1.617,0.491,0.121,-0.179,24.526,1.234,0
159,0.973,0.52,0.617,0.108,26.211,1.12,0
87,1.919,0.195,-0.975,0.35,29.895,1.188,0
132,1.097,-0.444,0.944,0.313,30.947,1.11,0
167,0.237,-0.072,0.069,-0.06,30.947,1.004,1
77,2.088,-0.055,-0.427,-0.009,33.737,1.141,0
129,1.058,-0.248,0.955,-0.343,35.0,1.225,0
179,0.867,-0.417,-0.263,-0.209,37.421,1.143,0
126,1.494,0.082,0.477,-0.513,39.316,1.08,0
168,0.289,0.186,-0.148,0.084,40.263,0.953,1
143,1.038,0.962,-0.209,-0.349,41.158,0.846,0
143,0.718,0.094,0.559,-0.38,36.737,0.844,1
130,1.631,-0.376,-0.062,0.236,36.842,0.836,0
132,1.645,-1.503,0.291,0.108,36.842,0.856,0
188,0.183,0.073,0.098,0.035,39.737,0.798,1
110,1.095,-0.875,0.154,-0.139,41.474,0.758,0
96,1.736,-3.75,-0.73,-0.456,41.789,0.826,0
99,2.028,2.187,-0.385,-0.39,40.579,0.806,0
180,0.2,0.065,-0.028,-0.012,44.526,0.774,1
87,2.296,0.97,1.114,1.107,46.737,0.943,0
99,2.109,-1.783,0.563,0.538,42.947,0.881,0
147,1.496,-0.175,0.49,-0.009,41.684,0.86,0
152,0.555,-0.292,0.251,0.022,39.579,0.867,0
87,1.9,1.481,0.761,-0.407,41.158,0.899,0
101,2.209,-0.483,2.917,-1.366,37.158,1.099,0
187,0.107,-0.082,-0.104,0.012,38.947,1.129,1
136,1.231,0.111,0.008,-0.547,39.0,1.191,0
91,1.298,2.112,0.405,0.082,38.579,1.166,0
142,1.196,-0.202,0.461,0.676,39.053,1.119,0
165,0.978,-0.588,0.051,-0.156,38.947,1.212,1
165,0.711,0.054,-0.921,-0.134,38.947,1.228,1
150,1.514,-0.932,0.552,0.667,39.053,1.16,0
134,1.762,0.22,-1.033,0.919,39.789,1.137,0
176,0.294,0.144,0.106,0.092,39.053,1.205,1
79,2.132,-0.379,1.546,-1.123,40.053,1.061,0
137,1.318,0.084,-0.504,-0.023,42.368,1.017,0
101,1.227,0.507,0.143,-0.071,44.105,0.979,0
118,1.204,0.104,-1.325,-0.301,40.737,1.031,0
154,0.984,-0.486,0.968,-0.568,37.737,0.96,1
143,1.396,-0.438,0.421,0.439,37.684,0.833,0
80,1.98,1.014,-0.587,0.169,38.474,0.966,0
167,0.802,-0.028,-0.106,0.046,42.789,0.921,0
171,0.359,-0.074,-0.215,0.236,39.579,0.889,1
176,0.214,-0.008,-0.057,0.042,39.105,0.859,1
156,0.829,1.15,-0.324,-0.081,35.632,0.818,0
144,1.411,-1.07,0.82,-0.344,33.579,0.869,0
120,0.445,0.145,0.548,0.02,32.474,0.825,0
126,1.147,0.876,-0.545,0.263,30.105,0.805,0
101,2.258,2.578,3.882,-0.611,30.211,0.901,0
155,1.456,0.26,-0.406,-0.039,33.053,0.874,0
83,2.186,-0.075,0.186,0.312,36.053,0.957,0
115,1.566,-1.78,0.592,-0.098,36.895,0.989,0
150,1.699,-0.123,-1.366,-0.248,36.526,0.982,0
123,1.145,-0.36,1.653,0.431,32.842,1.04,0
165,0.767,0.26,0.018,-0.481,32.0,1.052,1
87,1.663,-0.688,0.467,0.654,34.211,0.933,0
101,1.89,0.842,0.862,-0.17,34.053,1.013,0
124,1.343,0.253,-1.196,0.245,33.368,1.121,0
103,2.073,-0.112,0.859,-1.552,33.895,1.296,0
152,1.215,-1.437,0.21,-0.526,33.158,1.331,0
94,2.194,1.47,0.031,1.089,31.632,1.323,0
169,0.348,-0.056,-0.29,0.141,35.368,1.403,1
176,0.597,-0.001,-0.226,0.293,35.474,1.423,1
154,0.561,0.347,-0.128,-0.068,35.579,1.169,0
169,0.511,0.247,0.025,0.049,35.737,1.16,0
185,0.149,-0.065,-0.076,-0.09,35.316,0.99,1
91,1.778,2.016,0.254,-0.449,39.947,0.983,0
94,1.712,-0.372,0.19,-0.015,38.789,0.958,0
185,0.414,0.225,-0.176,0.274,40.737,0.911,1
98,2.378,-0.691,0.079,0.571,41.526,1.031,0
134,1.683,0.576,0.103,0.757,41.737,1.05,0
183,0.225,-0.108,-0.128,-0.097,42.474,0.903,1
85,2.436,1.429,-3.487,-0.413,46.211,0.913,0
176,0.149,-0.002,-0.193,0.056,48.789,0.747,1
61,1.312,0.065,-0.327,0.591,50.737,0.739,0
167,0.932,-0.869,-0.785,-0.023,55.579,0.659,1
191,0.244,0.01,0.05,-0.07,55.632,0.657,1
146,1.537,-0.58,-0.652,-0.596,56.895,0.715,0
136,1.027,-0.294,0.378,-0.193,54.842,0.797,0
90,1.714,0.188,-1.019,0.054,54.211,0.895,0
161,0.787,-0.907,0.55,0.219,54.0,1.034,0
188,0.29,-0.104,0.099,0.008,55.053,0.939,1
114,1.275,0.869,0.275,0.51,57.789,0.914,0
167,0.602,-0.527,0.085,-0.358,59.789,0.964,0
131,1.498,-0.132,0.028,-0.078,60.842,0.835,0
148,1.649,0.431,0.165,-1.185,56.789,0.832,0
126,0.65,-0.355,0.139,-0.01,57.789,0.937,0
89,2.046,1.358,0.509,-0.591,54.947,0.86,0
111,1.499,-0.176,-0.155,-0.421,51.526,1.043,0
79,1.902,-0.265,0.012,0.651,51.316,1.073,0
120,1.173,-0.093,-0.142,0.061,50.895,1.178,0
183,0.155,-0.017,0.026,-0.013,49.053,1.18,1
181,0.26,-0.033,-0.283,0.205,44.368,1.031,1
80,1.981,-1.922,0.412,-0.374,43.632,1.06,0
126,1.285,-1.219,0.299,0.263,40.474,0.964,0
162,0.588,-0.243,0.278,-0.32,41.105,0.919,0
171,0.268,-0.167,0.07,-0.061,39.211,0.999,1
174,0.0,0.0,0.0,0.0,38.842,0.948,1
156,0.549,-0.037,-0.266,-0.041,37.368,0.934,1
156,0.924,-0.9,0.709,0.002,33.632,0.95,1
146,1.299,0.109,0.042,-0.517,32.737,0.93,0
182,0.315,-0.192,0.162,-0.03,30.737,0.885,1
176,0.261,0.156,0.101,0.163,28.263,0.793,1
90,2.306,0.055,3.055,-0.897,30.895,0.778,0
134,1.18,-0.316,0.434,-0.552,32.316,0.711,0
163,0.605,-0.286,-0.355,-0.092,32.684,0.67,1
137,0.904,0.136,1.175,-0.301,32.105,0.715,0
141,1.435,0.793,-0.413,-0.186,31.158,0.841,0
191,0.111,-0.06,-0.208,0.002,32.105,0.688,1
147,1.536,0.843,-0.91,0.745,32.263,0.72,0
123,0.809,-0.131,-0.073,-0.01,30.211,0.742,0
175,1.503,-0.369,-0.952,-0.848,32.842,0.816,0
151,1.221,0.636,-0.237,0.098,28.789,0.962,1
145,0.59,-0.784,-0.069,0.148,26.684,0.968,0
151,0.734,0.259,-0.234,-0.086,25.105,0.992,0
160,0.447,-0.232,0.305,-0.043,25.105,0.957,1
151,1.853,0.124,-0.676,-0.202,25.421,1.088,0
154,0.319,0.456,-0.022,0.159,24.632,1.248,1
162,1.095,0.248,-1.275,-0.495,25.053,1.081,1
154,0.728,0.056,-0.258,-0.402,24.947,1.107,1
82,1.529,2.476,0.222,-0.39,26.842,1.237,0
162,0.738,-0.365,-0.218,-0.445,30.737,1.151,1
149,1.004,0.305,-0.096,-0.073,26.895,1.023,1
97,1.938,0.868,-0.134,1.024,27.316,1.334,0
185,0.153,-0.124,0.014,-0.008,30.421,1.194,1
134,1.378,1.158,2.095,-0.218,31.737,1.218,0
176,0.212,0.04,0.074,0.082,33.737,1.015,1
142,1.174,0.308,1.292,-0.278,32.895,0.929,0
137,1.131,-0.402,0.445,0.087,30.842,0.962,0
142,0.953,0.214,0.319,0.031,29.842,0.989,0
168,0.623,-0.342,0.292,0.004,28.474,1.062,0
176,0.229,-0.188,-0.128,0.056,27.632,0.852,1
179,0.349,0.095,-0.306,0.013,27.474,0.851,1
154,1.411,-0.499,-1.061,0.168,28.474,0.945,0
133,1.543,0.764,0.458,-0.747,29.105,1.034,0
182,0.246,0.035,0.172,0.046,31.211,0.883,1
132,0.608,0.606,-0.422,0.464,33.684,0.884,0
88,2.102,-1.334,0.329,-0.365,35.579,0.988,0
179,0.186,-0.069,0.05,0.018,39.947,0.767,1
155,0.526,-0.137,0.524,-0.063,37.421,0.864,1
71,1.609,0.715,-0.278,0.073,37.632,0.847,0
179,0.233,0.246,-0.024,-0.08,42.632,0.927,1
129,1.356,-0.693,0.541,0.899,42.526,0.943,0
161,0.5,-0.266,-0.188,-0.165,39.579,0.864,0
143,1.401,0.568,-1.363,-0.563,37.842,0.882,0
140,0.969,0.575,-0.221,0.175,35.789,0.895,0
151,1.495,-0.612,-1.383,-0.034,34.579,1.101,0
94,1.627,0.149,-1.514,1.081,37.316,1.195,0
169,0.236,0.153,-0.006,-0.02,41.0,1.08,1
175,0.851,-0.555,0.256,-0.199,39.947,0.971,0
169,0.677,-0.226,0.278,-0.129,39.842,1.099,1
145,0.913,-0.377,1.332,-0.162,40.947,1.133,1
107,2.114,-1.063,-0.762,0.377,41.632,1.046,0
183,0.25,0.155,0.145,0.086,44.526,1.2,1
127,1.23,0.149,-0.365,-0.375,44.895,1.22,0
149,1.089,-0.176,-0.478,-0.084,43.421,1.158,0
128,1.444,1.198,1.097,0.308,42.211,1.25,0
95,2.052,1.158,0.23,-0.588,39.158,1.286,0
142,1.095,-0.006,0.04,0.633,40.368,1.398,0
74,1.842,-0.35,-0.969,0.026,39.526,1.384,0
167,0.344,0.037,-0.073,0.222,38.737,1.301,1
184,0.241,-0.101,-0.057,0.019,37.0,1.101,1
184,0.015,0.0,0.011,0.002,35.316,0.91,1
156,1.444,0.217,-0.252,0.237,35.842,1.066,0
136,1.305,-0.773,-1.766,0.169,36.737,1.151,0
102,2.342,0.667,-0.356,-0.332,37.947,1.233,0
112,1.09,-0.137,0.952,-0.535,35.474,1.219,0
131,1.342,0.682,-0.46,0.512,32.526,1.165,0
74,1.685,-0.77,2.614,0.212,35.211,1.258,0
168,1.023,-1.539,-0.472,-0.141,39.842,1.187,1
95,1.46,0.505,2.158,-0.048,42.421,1.253,0
143,1.775,-0.842,0.738,-0.151,42.947,1.18,0
169,0.454,-0.148,-0.362,-0.039,40.316,1.036,1
178,0.231,-0.176,0.15,-0.079,37.842,0.951,1
149,0.802,-0.296,-0.136,0.253,38.211,0.87,0
169,0.737,-0.79,1.279,0.176,38.158,0.924,0
87,1.874,-1.265,-1.224,0.316,40.737,1.098,0
149,1.552,0.658,-0.078,-0.139,41.526,1.328,0
173,0.859,0.858,-0.706,-0.253,39.211,1.188,1
93,2.04,1.372,1.921,-0.041,38.526,1.2,0
185,0.312,-0.038,-0.198,0.081,42.474,0.973,1
151,0.721,-0.142,-0.059,0.032,44.263,0.942,1
180,0.138,0.114,0.169,0.006,44.316,0.914,1
181,0.214,0.029,0.071,-0.01,43.316,0.765,1
182,0.247,0.134,0.347,-0.104,41.579,0.731,1
102,1.764,0.898,0.686,0.074,45.263,0.733,0
141,1.823,0.726,0.224,0.224,46.316,0.722,0
118,0.788,0.176,-0.417,0.258,44.526,0.808,0
167,0.302,-0.145,-0.056,0.017,42.158,0.854,1
178,0.04,-0.041,0.006,-0.003,38.895,0.862,1
97,1.888,-2.13,-1.778,-0.361,40.632,0.913,0
79,1.338,1.182,0.639,0.326,40.211,0.798,0
158,1.11,-0.462,-0.239,-0.681,43.895,0.711,1
145,1.462,0.543,-0.329,-0.288,43.053,0.766,0
170,0.733,-0.099,0.427,-0.285,43.316,0.669,1
174,0.345,0.011,0.162,-0.039,39.211,0.749,1
172,0.594,-0.433,-0.122,0.203,36.053,0.758,1
139,1.459,-0.864,-1.04,0.287,36.526,0.901,0
108,1.989,-0.357,0.811,-0.424,33.947,1.119,0
86,2.408,1.302,-0.551,-1.15,30.263,1.345,0
150,1.146,0.617,0.864,0.408,31.842,1.27,0
146,1.153,-0.518,0.794,-0.247,30.526,1.217,0
90,1.54,-0.027,0.45,0.354,33.421,1.241,0
180,0.266,0.341,0.185,0.003,38.105,1.233,1
91,1.945,0.312,0.445,0.784,38.579,1.445,0
150,0.89,-0.577,0.179,0.138,39.632,1.262,1
77,2.02,-0.622,-0.172,-1.244,42.263,1.359,0
174,0.115,0.098,0.041,-0.024,44.789,1.33,1
97,1.496,-0.295,0.87,0.568,48.263,1.276,0
85,2.001,2.244,-0.905,-0.999,44.632,1.504,0
69,2.225,-0.703,-0.221,0.53,44.526,1.645,0
138,1.341,-0.343,-1.333,0.19,44.0,1.72,0
102,1.453,0.411,2.745,0.482,45.211,1.558,0
167,0.22,0.061,-0.044,-0.018,47.316,1.273,1
77,1.757,1.625,-1.363,-0.73,51.842,1.084,0
188,0.293,0.06,-0.023,-0.006,57.579,1.074,1
176,0.155,-0.088,0.082,-0.072,56.474,1.057,1
141,1.391,-0.883,0.52,-0.049,56.684,1.003,0
92,1.84,-0.942,-1.178,-0.54,58.105,1.096,0
164,0.837,-0.37,-0.979,0.175,58.526,0.931,0
154,1.805,0.425,-1.178,-0.067,58.842,1.031,0
157,0.416,-0.251,0.032,-0.046,56.053,0.91,0
91,0.858,0.408,0.254,0.348,54.789,1.001,0
140,1.254,1.065,1.386,-0.055,52.684,0.986,0
139,1.075,0.332,-1.169,0.205,49.632,0.874,0
87,2.115,-1.476,-0.454,0.605,48.526,0.791,0
131,1.218,-0.22,-0.219,0.37,45.737,0.759,0
96,1.336,-0.291,0.238,0.214,43.526,0.754,0
171,1.004,-0.253,0.493,-0.275,46.842,0.858,0
143,1.109,0.538,-0.086,0.544,47.474,0.854,0
130,1.096,-0.404,1.003,-0.146,44.526,0.936,0
151,0.895,-0.01,0.055,0.313,43.737,1.03,1
172,0.867,-0.406,0.259,-0.505,41.421,1.009,1
100,1.762,1.237,-0.287,-0.675,40.474,0.922,0
162,0.196,0.017,-0.086,-0.008,37.895,0.943,0
72,1.58,-0.184,0.631,0.089,42.0,0.886,0
172,0.954,0.066,0.169,-0.195,45.421,0.999,0
76,1.767,0.182,0.048,0.705,47.895,1.008,0
133,1.532,-0.007,0.199,0.136,47.105,1.037,0
116,1.374,-0.655,-2.326,-0.117,47.474,1.112,0
177,0.292,-0.198,-0.012,-0.029,50.526,1.01,1
176,0.161,0.057,-0.027,-0.018,47.105,0.954,1
95,1.355,0.937,-0.083,0.015,48.789,0.962,0
79,2.001,2.102,-0.693,0.248,49.579,0.976,0
150,0.885,-0.276,0.577,-0.555,50.579,1.001,1
157,0.469,0.402,-0.152,0.1,48.632,0.919,0
134,1.713,-0.415,2.092,1.024,48.0,0.926,0
74,1.598,0.327,0.713,0.267,47.211,0.995,0
165,0.124,-0.091,0.008,-0.019,50.526,0.907,1
186,0.18,-0.153,0.157,0.023,50.947,0.94,1
173,0.403,0.102,0.447,0.065,50.526,0.882,1
176,0.154,0.238,0.016,0.038,49.579,0.809,1
95,1.775,1.467,-2.335,-0.757,50.053,0.769,0
135,1.498,0.749,0.538,0.431,48.895,0.755,0
172,0.749,0.123,-0.124,0.251,46.105,0.71,0
132,1.615,-0.592,0.772,-0.001,42.947,0.864,0
88,1.553,0.872,-0.788,-0.054,40.211,1.009,0
128,1.425,0.563,0.199,0.426,39.316,1.012,0
95,1.933,-0.325,1.032,0.795,40.158,0.949,0
155,0.68,-0.124,0.813,-0.059,40.105,0.949,1
143,1.382,0.284,-0.911,0.018,40.684,1.043,0
78,2.27,-0.655,1.635,-0.41,39.842,1.026,0
101,1.771,-0.413,-0.23,0.177,40.211,0.993,0
83,2.12,0.204,-1.418,-0.16,37.421,1.219,0
88,1.773,1.713,-1.0,-0.962,37.316,1.32,0
179,0.298,-0.061,0.131,0.13,40.895,1.418,1
147,0.203,-0.056,-0.031,0.077,39.421,1.503,1
156,0.643,-0.089,-0.018,-0.096,35.105,1.421,0
168,0.749,0.399,0.347,-0.097,34.632,1.371,1
185,0.303,-0.112,0.219,0.11,34.842,1.402,1
162,0.618,-0.203,0.348,-0.283,35.895,1.207,1
128,1.16,0.011,-1.115,-0.242,33.421,1.078,0
159,0.935,-0.737,0.824,0.107,32.947,1.043,0
172,0.129,0.06,-0.005,-0.001,31.684,0.935,1
78,1.518,-0.376,0.436,0.066,34.526,1.0,0
185,0.082,-0.04,0.083,-0.011,37.842,0.868,1
76,1.48,0.748,-0.649,-0.162,41.474,0.795,0
194,0.225,-0.26,0.202,0.041,45.947,0.699,1
82,1.893,-0.662,-0.752,-0.566,48.684,0.616,0
156,1.17,1.05,0.897,-0.351,51.947,0.541,0
147,0.757,-0.265,0.04,-0.229,49.0,0.565,0
172,0.32,0.038,-0.484,0.041,49.105,0.569,1
180,0.444,0.025,0.043,-0.129,48.579,0.592,1
109,1.502,-0.685,-0.64,0.059,52.053,0.654,0
171,0.132,0.082,0.137,0.02,50.526,0.661,1
166,0.775,-0.77,0.866,0.255,49.105,0.707,1
94,2.123,-0.11,-0.165,-0.979,52.421,0.778,0
78,1.685,-1.367,-1.473,0.172,52.632,0.845,0
84,1.665,-0.406,0.097,-0.807,52.053,1.049,0
165,0.545,0.074,0.198,0.231,55.105,0.932,0
176,0.153,-0.116,-0.005,-0.026,53.895,1.02,1
178,0.252,-0.141,0.012,0.106,52.368,0.99,1
94,2.079,0.281,-0.713,0.603,56.105,1.266,0
181,0.217,0.042,0.062,-0.066,55.737,1.15,1
137,1.653,-0.572,0.293,0.092,52.421,1.254,0
86,1.893,1.617,1.606,-0.017,49.368,1.301,0
136,1.637,0.421,1.875,-0.51,45.789,1.398,0
168,0.245,-0.087,0.049,-0.059,41.579,1.405,1
151,1.029,-0.592,-0.001,-0.329,38.579,1.283,0
130,1.247,0.234,0.482,0.631,39.211,1.391,0
154,0.676,0.614,-0.522,0.091,39.158,1.365,1
181,0.202,-0.065,0.078,0.043,40.158,1.125,1
86,1.791,-0.431,0.835,-0.575,41.421,1.074,0
150,0.615,-0.312,-0.064,-0.165,41.526,0.902,1
89,1.968,-0.478,-1.445,-0.527,44.474,1.058,0
145,1.455,0.399,0.775,0.007,43.632,1.141,0
181,0.152,-0.056,-0.181,0.093,44.684,1.236,1
176,0.206,-0.046,0.028,-0.061,44.632,0.967,1
147,0.723,-0.047,-0.028,0.183,41.895,1.121,1
123,1.324,1.139,-1.382,-0.318,42.579,1.06,0
155,0.776,-0.077,-0.291,0.054,44.158,0.91,0
91,2.261,-0.168,1.008,-0.1,43.105,0.876,0
184,0.24,0.037,0.077,-0.09,43.421,0.886,1
86,1.91,-0.185,-0.794,0.633,46.263,0.967,0
179,0.182,-0.01,0.045,0.086,48.474,0.842,1
135,0.711,0.511,-0.321,0.223,48.158,0.849,0
136,1.475,-0.385,-1.247,0.122,46.526,1.04,0
168,0.617,-0.178,0.1,0.039,47.316,0.956,1
177,0.2,-0.092,0.141,-0.08,46.684,0.998,1
160,1.033,-0.636,-0.106,0.184,46.316,0.847,1
160,1.07,0.636,-1.184,-0.252,44.895,0.76,1
175,0.333,-0.478,-0.204,0.098,40.684,0.775,1
87,1.675,0.042,0.453,0.74,41.947,0.97,0
158,0.619,0.742,0.438,-0.318,42.474,0.931,1
93,1.443,0.383,0.152,-0.066,42.947,0.959,0
151,1.045,0.514,-0.293,-0.25,44.105,1.055,0
147,1.294,-0.013,-0.744,0.356,44.053,0.944,0
186,0.237,0.096,0.106,-0.045,44.579,0.944,1
143,0.663,0.134,-0.171,0.4,45.579,0.81,1
152,0.511,-0.097,-0.246,0.088,44.368,0.893,0
103,1.892,1.216,0.104,0.141,43.579,0.972,0
111,1.686,-0.38,-0.568,-0.248,39.105,0.907,0
62,2.08,2.099,-0.229,-0.447,36.526,1.08,0
104,1.377,-1.266,0.223,0.475,33.842,1.194,0
168,0.283,0.27,-0.232,-0.119,34.895,1.222,1
185,0.364,0.022,-0.098,-0.106,35.737,1.204,1
134,1.337,0.779,-0.582,-0.059,36.737,1.264,0
166,1.005,1.194,-0.848,-0.51,37.947,1.09,1
144,1.165,0.284,0.71,-0.41,38.211,1.136,0
130,1.391,-1.523,0.836,0.245,38.947,1.123,0
118,1.041,1.274,1.252,-0.03,38.789,1.102,0
84,1.733,1.557,-0.081,-1.09,35.947,1.211,0
88,1.29,0.289,0.205,0.025,32.421,1.287,0
88,1.358,-0.241,0.577,-0.066,29.0,1.47,0
176,0.362,0.147,0.042,0.165,30.579,1.421,1
146,0.872,0.682,0.071,-0.014,31.947,1.229,1
162,0.737,-0.12,-0.05,-0.085,30.737,1.145,0
151,0.944,0.354,0.841,-0.291,29.053,0.967,0
154,0.8,-0.316,0.365,0.183,28.737,0.866,0
112,0.843,-0.009,0.148,0.123,28.368,0.94,0
131,1.051,0.129,0.355,-0.047,28.947,1.027,0
169,0.402,0.01,-0.43,0.093,28.368,0.908,1
171,0.431,-0.278,-0.102,-0.18,26.263,0.91,1
94,1.78,0.277,-1.138,0.318,26.947,0.918,0
155,0.791,-0.583,-0.356,-0.071,29.263,0.884,1
104,1.801,0.46,-1.007,-0.624,29.263,0.931,0
149,0.972,-0.084,0.325,-0.318,29.947,0.861,0
173,0.133,-0.117,0.015,0.023,30.053,0.745,1
96,2.257,-0.271,1.597,-0.976,33.368,0.766,0
79,1.901,-0.522,1.194,0.441,33.632,0.856,0
85,1.307,-1.025,0.377,-0.098,32.158,0.931,0
161,0.64,-0.114,0.243,0.005,35.947,0.979,1
168,0.873,-0.111,-0.158,0.416,36.316,1.047,0
183,0.137,0.014,0.038,0.005,32.474,1.043,1
136,0.967,0.188,-0.898,0.059,33.368,1.013,0
140,0.856,0.423,0.172,0.046,32.737,0.957,0
152,0.734,-0.021,-0.051,-0.26,32.789,1.039,1
158,0.951,0.47,-0.749,0.045,32.947,1.117,1
146,1.293,0.475,-0.786,-0.208,31.368,1.038,0
93,2.136,-0.171,0.263,0.073,33.158,1.175,0
160,0.846,-0.188,-0.409,-0.117,34.684,1.053,1
65,1.488,-0.749,-0.482,-0.322,39.579,1.145,0
99,1.663,-0.353,2.161,0.526,37.316,1.36,0
150,0.903,-0.6,0.723,-0.148,36.789,1.178,0
119,1.18,0.357,0.058,-0.052,35.737,1.017,0
83,1.753,0.722,-0.675,-0.299,35.263,1.017,0
142,1.767,0.262,0.421,0.233,37.105,1.093,0
95,1.478,0.103,-0.026,0.143,35.526,1.136,0
91,1.679,0.828,1.469,0.041,34.842,1.286,0
138,1.294,1.472,-1.056,-0.431,37.0,1.297,0
107,1.746,0.035,-0.538,-0.271,34.632,1.372,0
158,0.633,0.687,0.34,-0.182,36.947,1.336,0
98,1.759,-0.821,-0.468,-0.143,39.316,1.343,0
168,0.976,-0.654,-0.024,0.284,40.526,1.364,1
149,1.093,0.218,0.143,0.317,41.316,1.195,1
166,0.473,0.373,-0.153,-0.027,41.579,1.243,1
160,0.688,0.019,-0.71,0.216,41.579,1.155,0
67,2.05,0.202,0.326,-0.317,45.842,1.079,0
142,1.497,-0.649,0.054,0.056,47.0,1.202,0
170,0.408,-0.186,-0.032,0.214,44.947,1.208,1
143,0.661,-0.707,0.466,-0.081,41.368,1.108,1
145,1.368,-0.731,-0.789,0.104,39.684,1.015,0
96,2.213,1.013,-0.84,-0.658,39.579,1.021,0
96,1.73,1.649,0.52,-0.253,37.947,0.944,0
89,2.333,0.431,0.982,-0.63,36.421,0.98,0
187,0.196,0.197,-0.106,-0.059,38.474,0.864,1
72,1.993,-1.179,-0.227,0.45,42.053,0.934,0
86,1.267,-0.746,-0.586,0.545,42.579,0.876,0
137,1.793,1.08,-0.749,1.072,42.789,0.928,0
140,1.493,-0.608,-0.274,-0.268,41.316,0.995,0
136,1.053,0.641,0.494,0.265,38.842,1.043,0
99,2.055,-1.623,-0.575,0.507,37.632,1.158,0
160,0.805,-0.453,0.746,0.146,37.158,1.072,1
142,1.551,-0.98,0.323,-0.017,37.105,1.043,0
121,1.547,0.878,0.468,-0.251,37.316,1.143,0
123,1.161,0.335,-0.688,-0.359,37.105,1.239,0
91,1.837,-0.239,-0.286,0.069,33.895,1.293,0
162,0.813,0.223,0.212,-0.432,33.684,1.167,1
96,2.129,-1.881,-0.689,-0.467,35.684,1.185,0
140,0.868,0.073,0.124,0.231,36.579,1.048,0
156,1.196,-0.153,-0.508,0.196,37.316,1.193,0
146,1.438,0.792,-0.268,-0.283,35.263,1.081,0
79,1.43,1.591,1.18,0.255,38.789,1.117,0
142,1.353,-0.786,-1.121,0.312,41.737,1.049,0
105,1.624,-2.202,-1.211,-0.152,38.526,1.035,0
177,0.41,0.166,0.075,-0.049,36.263,0.975,1
128,1.291,0.259,-1.065,-0.362,38.105,0.88,0
95,1.768,-0.082,1.393,-0.369,37.158,0.978,0
174,0.73,-0.146,0.195,0.095,41.158,0.937,0
87,1.193,-1.136,0.517,-0.586,45.526,0.872,0
97,1.942,-3.172,0.194,-0.67,44.105,0.888,0
96,1.85,0.675,-0.777,-0.035,40.947,0.87,0
87,1.484,-0.424,-1.063,-0.816,40.474,0.957,0
142,1.37,-1.033,-0.334,0.285,42.263,0.906,0
156,0.466,-0.042,0.048,-0.012,42.895,0.951,1
178,0.165,-0.045,-0.139,0.004,42.368,0.859,1
147,1.481,-0.521,-0.515,1.003,40.263,0.883,0
92,1.769,-2.629,0.532,0.806,39.684,0.893,0
136,1.398,-1.037,1.042,0.405,39.684,0.914,0
174,0.23,-0.011,0.076,0.104,40.842,0.841,1
148,1.496,-0.677,0.214,0.615,41.684,0.922,0
119,0.975,0.137,1.238,-0.245,39.684,0.942,0
131,1.736,1.959,0.57,0.312,37.0,0.896,0
180,0.256,-0.0,0.183,0.116,37.632,0.909,1
74,2.128,0.024,-0.46,-0.896,39.421,0.974,0
166,0.153,0.083,-0.252,0.055,41.684,0.847,1
141,1.342,1.073,1.004,-0.513,41.263,0.821,0
154,0.717,-0.43,-0.425,-0.176,37.789,0.757,0
145,0.853,0.075,0.594,-0.047,33.684,0.76,0
154,0.364,-0.104,0.112,0.177,33.632,0.771,1
155,0.704,-0.678,-0.236,0.21,33.632,0.843,1
176,0.265,-0.129,0.093,-0.072,34.263,0.775,1
178,0.319,-0.05,-0.083,-0.003,31.474,0.685,1
173,0.253,-0.04,-0.132,0.012,31.0,0.623,1
180,0.207,-0.016,-0.018,0.031,30.211,0.671,1
92,1.415,1.135,0.651,0.425,33.211,0.627,0
139,1.404,-0.052,0.878,0.098,32.789,0.662,0
181,0.444,-0.145,-0.139,-0.113,32.684,0.592,1
122,1.036,-0.108,0.064,-0.084,33.789,0.652,0
159,1.044,-0.171,0.773,0.135,34.368,0.561,0
178,0.439,-0.254,0.063,-0.168,33.842,0.637,1
182,0.253,-0.081,0.014,-0.121,33.421,0.591,1
96,1.63,0.793,-0.639,0.448,35.368,0.678,0
89,1.865,1.808,1.666,0.465,30.158,0.768,0
160,0.907,-0.15,0.342,0.017,29.053,0.809,0
164,0.913,-0.021,0.041,-0.017,27.947,0.794,1
149,0.74,-0.03,-0.559,-0.09,28.053,0.895,1
129,0.699,-0.273,-0.406,0.13,28.632,1.024,0
154,0.438,0.412,0.037,-0.2,29.474,1.139,1
109,1.338,-1.651,0.216,0.229,31.789,1.238,0
90,1.692,0.124,0.089,-0.371,31.684,1.27,0
107,1.968,0.717,-1.268,0.249,32.474,1.272,0
120,1.068,-0.143,0.212,-0.181,32.895,1.481,0
187,0.328,-0.155,0.172,-0.122,36.053,1.32,1
82,1.748,-0.154,2.464,0.498,36.947,1.523,0
131,1.104,-0.086,-0.369,0.087,37.053,1.545,0
149,0.202,0.147,-0.054,0.033,35.789,1.713,0
156,1.0,-0.54,-0.039,0.005,33.053,1.506,0
169,0.208,0.13,0.015,-0.047,31.789,1.233,1
142,0.723,0.002,-0.084,0.276,32.211,1.163,0
137,1.365,0.581,-0.172,0.083,32.263,1.18,0
172,0.301,-0.007,-0.091,0.1,29.579,1.102,1
170,0.15,-0.172,-0.013,0.042,29.316,1.029,1
106,1.602,-0.306,-0.521,-0.042,28.947,1.101,0
174,0.355,0.201,-0.251,0.133,32.316,0.948,1
84,2.59,-0.668,2.607,-0.984,36.263,0.991,0
80,1.666,-0.257,-0.295,-0.049,35.421,0.935,0
81,2.148,1.577,1.223,0.338,34.158,0.966,0
90,1.747,0.203,-1.015,-0.268,32.263,1.104,0
152,0.931,-0.4,0.971,0.115,34.526,1.004,1
95,1.399,0.514,0.478,0.03,36.632,0.982,0
168,0.176,0.02,-0.166,0.007,39.789,0.983,1
80,1.474,-0.605,-0.624,-0.115,40.895,1.051,0
137,0.859,0.197,0.571,0.171,38.368,1.218,0
190,0.252,0.116,-0.059,-0.142,38.579,1.201,1
90,2.484,-0.089,-0.117,0.749,42.895,1.24,0
159,0.474,0.362,0.565,-0.093,46.158,1.291,1
71,1.781,0.244,-0.092,-0.301,50.105,1.463,0
123,1.227,0.779,0.465,0.159,51.421,1.322,0
115,0.936,0.616,-0.658,-0.511,51.579,1.458,0
157,1.207,-0.976,0.68,0.001,51.947,1.275,0
139,1.571,-0.365,0.672,-0.325,52.789,1.295,0
118,0.858,-0.533,-0.562,0.101,50.526,1.122,0
177,0.386,-0.102,0.142,0.004,50.053,0.947,1
133,1.572,0.144,0.078,0.137,47.632,1.035,0
156,1.026,0.547,-0.974,0.143,48.632,0.994,1
78,1.744,-0.502,0.407,-0.141,52.684,1.091,0
91,1.413,-0.523,-0.022,-0.513,52.895,1.057,0
152,1.047,-0.796,0.519,0.101,52.842,1.028,0
81,1.777,0.599,-0.498,0.407,53.579,1.146,0
163,0.938,-0.374,-0.407,-0.089,54.053,0.99,0
179,0.065,0.018,-0.004,0.022,50.263,0.959,1
173,0.049,-0.031,0.01,0.003,47.579,0.793,1
162,0.647,0.47,0.108,0.108,45.368,0.779,0
155,0.94,-0.161,-0.274,-0.313,40.474,0.757,0
167,1.062,-0.293,0.38,-0.376,37.474,0.805,1
158,0.541,-0.387,-0.223,0.291,33.316,0.754,1
173,0.273,0.321,0.055,-0.03,31.368,0.776,1
168,0.198,-0.088,0.209,-0.027,31.211,0.83,1
152,1.034,0.417,-0.731,0.436,29.842,0.766,0
137,1.258,1.956,-1.218,0.916,29.684,0.797,0
172,0.158,-0.14,-0.048,0.052,30.421,0.639,1
179,0.288,-0.304,-0.288,-0.13,27.684,0.578,1
115,1.222,0.888,-0.371,-0.187,28.737,0.581,0
145,1.229,0.242,0.598,0.646,29.105,0.508,0
164,0.283,0.107,-0.1,-0.105,26.0,0.515,1
156,0.706,-0.379,0.499,-0.355,25.737,0.564,0
148,0.315,0.115,-0.011,-0.007,22.947,0.642,0
90,1.814,0.815,1.626,0.11,22.263,0.743,0
141,1.294,-0.705,0.35,-0.119,20.632,0.766,0
156,0.613,-0.544,-0.043,0.19,20.579,0.744,1
116,1.401,-0.436,-0.452,-0.414,22.368,0.859,0
57,1.694,-1.042,-1.093,0.37,24.895,1.002,0
146,1.343,-0.666,-0.316,0.676,29.211,1.102,0
89,1.708,-0.049,-0.02,-0.269,31.579,1.202,0
138,1.63,-2.199,-1.1,-0.284,33.684,1.209,0
177,0.375,0.282,0.103,0.071,34.947,1.396,1
153,1.58,-2.861,1.497,0.377,35.947,1.675,0
176,0.999,0.461,1.195,0.065,36.316,1.625,1
159,1.709,-0.074,0.251,-0.654,36.421,1.764,0
85,1.578,0.765,1.496,0.434,38.474,2.029,0
133,1.61,0.547,-0.297,-0.075,40.632,1.988,0
91,1.722,-0.514,0.057,0.228,39.474,2.075,0
133,1.595,0.371,-0.156,0.095,40.105,1.842,0
137,1.13,0.347,0.197,0.015,39.316,1.772,0
134,1.736,0.447,-1.126,-0.507,39.053,1.943,0
82,1.829,0.222,-0.005,0.936,41.368,1.84,0
136,1.011,-0.237,0.808,0.124,41.158,1.596,0
85,1.634,-0.584,1.408,0.14,41.158,1.491,0
134,1.045,-0.507,0.452,-0.162,42.947,1.382,0
95,1.416,-0.955,-0.705,0.251,42.895,1.336,0
175,0.285,-0.066,0.108,0.02,44.0,1.312,1
155,0.644,-0.244,0.449,0.174,40.368,1.159,1
87,1.684,-0.822,-0.778,0.162,40.947,1.214,0
119,1.163,0.323,-0.22,-0.008,40.053,1.15,0
134,1.742,0.186,-0.83,-0.372,38.789,1.079,0
164,0.813,0.324,0.693,-0.476,39.105,0.989,1
152,0.521,-0.151,0.076,0.135,38.526,0.866,0
147,1.512,-1.23,0.437,0.152,37.895,0.871,0
178,0.297,-0.005,0.094,-0.03,35.632,0.838,1
138,1.02,-0.627,0.134,-0.082,35.211,0.762,0
80,1.64,-1.49,0.54,-0.041,36.053,0.739,0
146,0.687,-0.032,-0.031,0.071,37.316,0.747,0
159,0.375,-0.008,-0.119,-0.115,37.789,0.679,0
157,0.779,0.05,0.791,-0.061,37.737,0.688,1
71,1.83,-0.282,-1.298,0.219,39.526,0.715,0
126,0.95,0.059,0.141,-0.305,39.579,0.75,0
176,0.197,0.008,0.126,-0.099,39.526,0.763,1
125,1.506,-0.314,0.83,0.547,39.632,0.729,0
165,0.418,-0.174,0.257,0.106,39.684,0.711,1
138,1.308,-0.592,1.028,-0.46,36.895,0.684,0
160,0.123,-0.055,0.022,0.011,37.0,0.677,1
158,0.919,0.417,0.208,-0.05,33.526,0.743,1
166,1.026,0.463,-0.362,0.335,32.263,0.72,0
139,1.507,-0.182,0.509,-0.197,32.895,0.824,0
99,1.859,1.857,-0.199,0.348,33.421,0.91,0
182,0.123,-0.015,0.014,-0.042,37.158,0.828,1
93,2.154,1.022,-0.368,-0.761,41.579,0.936,0
163,0.619,0.559,-0.173,-0.137,43.632,1.032,1
83,1.578,1.046,-2.345,-0.216,45.737,1.106,0
137,0.9,0.707,0.3,-0.439,45.526,1.013,0
169,0.26,0.242,0.041,0.013,43.737,0.926,1
92,1.3,0.772,-0.685,-0.384,47.105,1.026,0
174,0.214,-0.162,0.049,0.06,51.316,0.952,1
130,1.299,0.67,1.134,-0.229,49.105,1.063,0
92,1.595,1.408,-0.063,-0.096,48.211,1.117,0
165,0.777,0.0,-0.098,0.082,49.421,1.225,1
153,0.565,0.105,-0.115,-0.148,47.368,1.163,1
76,1.263,0.763,0.963,-0.124,49.316,1.225,0
180,0.097,-0.045,0.057,0.019,53.368,1.022,1
65,1.603,0.188,-0.532,-0.509,58.263,0.949,0
105,1.487,-1.253,0.402,-0.013,60.263,1.155,0
185,0.272,-0.007,-0.481,0.131,64.053,0.917,1
168,0.577,-0.453,0.064,0.097,63.526,0.9,0
88,2.166,2.26,-0.461,-0.502,65.632,0.892,0
164,0.591,-0.214,-0.195,0.289,65.263,0.926,1
131,1.31,-0.301,-0.092,0.192,62.316,1.043,0
140,1.811,0.342,0.678,-0.492,59.105,1.002,0
147,1.09,0.638,-1.031,0.129,55.263,1.154,0
170,0.29,-0.309,0.06,-0.099,53.632,1.02,1
76,1.45,1.28,-1.153,0.586,56.895,0.992,0
167,0.921,-0.706,0.503,-0.02,57.632,0.961,0
130,1.856,-0.331,-1.23,-0.636,55.263,1.064,0
96,2.342,1.862,-1.366,-1.365,54.737,1.116,0
163,1.725,1.25,-0.762,-0.224,56.263,1.335,0
98,1.9,-1.352,-0.37,0.377,55.842,1.379,0
181,0.352,0.064,0.057,-0.054,59.579,1.187,1
56,1.665,0.763,-0.39,-0.233,62.105,1.45,0
151,0.626,0.288,-0.06,-0.053,61.632,1.458,1
97,1.688,0.801,-1.977,-0.724,58.421,1.365,0
164,0.341,-0.297,-0.136,-0.012,59.842,1.377,1
144,1.577,-1.155,2.364,0.131,56.684,1.299,0
180,0.301,0.201,0.199,-0.011,57.684,1.16,1
176,0.346,-0.099,-0.135,0.197,53.684,1.053,1
177,0.336,-0.558,0.547,0.151,49.737,1.125,1
123,1.497,0.068,-1.589,0.208,50.842,1.138,0
175,0.228,0.156,-0.048,0.016,53.105,1.083,1
85,2.26,-0.089,1.577,0.288,57.474,1.024,0
180,0.271,-0.016,0.202,-0.021,61.263,0.846,1
141,1.531,0.001,-1.78,-0.561,58.368,0.765,0
131,1.134,-0.39,-0.033,-0.465,54.105,0.715,0
167,0.733,0.481,0.544,0.411,54.053,0.779,1
85,1.913,0.561,0.914,-0.434,56.579,0.737,0
97,2.033,2.304,0.014,0.26,53.684,0.806,0
80,1.77,-1.417,-0.991,0.215,51.158,0.829,0
83,1.581,-0.497,-1.296,-0.373,46.947,0.904,0
175,0.569,0.131,0.402,0.313,45.211,0.84,0
176,0.344,-0.298,-0.189,-0.081,40.263,0.913,1
171,0.272,0.006,-0.118,-0.177,37.684,0.948,1
131,1.214,-0.936,-0.228,-0.332,36.263,0.996,0
130,1.045,-0.821,-0.096,-0.272,35.263,0.967,0
182,0.214,0.079,0.144,0.018,36.105,1.006,1
159,0.776,0.322,0.375,0.01,37.105,0.896,1
180,0.341,0.027,0.138,-0.082,38.158,1.024,1
175,0.289,0.073,-0.227,0.123,35.579,0.954,1
137,1.083,2.194,0.335,-0.025,34.842,1.002,0
84,1.845,1.622,1.358,0.25,32.895,1.052,0
151,1.376,-1.107,0.444,0.641,31.421,0.998,0
170,0.769,0.041,0.025,0.145,30.368,0.833,0
158,0.538,-0.278,0.031,-0.037,30.474,0.753,1
165,1.094,-0.482,-0.502,-0.589,28.947,0.672,0
85,2.107,1.115,-0.283,1.962,28.842,0.806,0
176,0.298,-0.005,-0.256,-0.127,33.0,0.801,1
93,1.643,-0.724,0.771,-0.632,36.474,0.888,0
171,0.112,0.028,0.035,-0.08,40.421,0.78,1
176,0.254,-0.111,-0.023,-0.037,35.842,0.754,1
177,0.186,-0.121,0.042,0.032,35.842,0.753,1
91,1.69,1.395,-0.573,-1.01,40.105,0.885,0
126,1.421,0.212,0.029,-0.274,39.842,0.95,0
100,1.775,0.63,-0.202,0.319,41.158,1.138,0
161,0.654,-0.134,-0.008,-0.253,41.632,1.112,0
134,1.469,-0.237,0.306,-0.961,41.842,1.006,0
134,1.623,-0.448,1.293,-1.305,40.737,1.06,0
177,0.179,-0.058,0.046,-0.074,42.737,1.115,1
181,0.131,-0.095,-0.096,0.015,40.947,1.194,1
113,0.99,1.45,0.362,0.57,41.737,1.235,0
144,1.405,-0.421,-0.382,0.276,39.842,1.039,0
174,1.258,-0.246,0.086,-0.092,40.421,1.115,0
136,1.243,0.947,0.195,0.14,41.789,0.983,0
149,1.332,-1.022,-0.98,0.006,42.105,1.154,0
93,1.771,-1.61,-0.051,-0.309,40.842,1.345,0
127,1.662,-0.812,0.18,0.113,37.842,1.464,0
150,1.194,-0.152,0.646,-0.275,34.684,1.329,0
181,0.376,0.42,0.028,0.124,32.211,1.16,1
157,0.768,0.866,-0.308,-0.321,33.211,0.992,1
168,0.696,0.353,-0.119,0.275,33.737,1.021,0
100,1.568,-1.202,-0.596,0.269,32.789,1.053,0
150,0.779,0.773,-0.353,0.119,33.579,0.982,0
177,0.825,0.678,0.39,-0.085,33.632,1.064,1
161,0.959,-1.249,0.411,-0.067,31.263,1.15,0
189,0.368,0.25,0.095,0.056,31.316,1.115,1
121,1.333,-0.926,0.101,0.809,34.895,1.167,0
143,1.621,-0.004,0.18,-0.121,33.789,1.116,0
84,2.228,0.096,1.442,0.137,36.684,1.215,0
87,2.165,-0.934,-0.17,0.3,33.263,1.173,0
181,0.197,-0.128,0.066,-0.044,36.579,0.977,1
130,1.469,-1.024,2.057,0.571,37.684,0.89,0
196,0.292,-0.305,-0.037,-0.011,39.158,0.864,1
83,1.243,0.363,-0.825,0.038,44.421,0.968,0
184,0.092,-0.015,-0.041,0.008,46.789,0.986,1
176,0.316,0.494,0.091,-0.087,45.421,0.96,1
144,1.212,0.929,0.285,-0.35,45.895,0.932,0
132,1.953,-2.139,-0.866,-0.367,44.895,1.06,0
106,1.741,0.1,1.625,0.783,45.0,1.075,0
97,2.093,0.226,-0.062,-0.158,44.895,1.089,0
174,0.04,-0.002,0.026,0.015,45.368,1.111,1
160,0.929,-0.036,-0.812,0.587,43.474,1.091,1
162,1.036,-0.051,0.486,0.422,42.158,1.031,0
148,0.804,-0.217,-0.18,-0.301,42.053,0.892,0
160,0.549,0.168,0.32,0.054,41.211,0.763,0
52,1.402,1.771,-1.735,-0.337,43.316,0.906,0
69,1.884,-0.826,-1.717,0.013,43.053,0.942,0
151,0.937,0.285,0.773,0.024,44.263,1.038,1
128,1.829,1.628,-0.515,-0.276,45.316,1.019,0
79,1.425,-0.558,1.148,0.153,42.947,1.146,0
146,1.01,0.555,0.512,-0.044,43.789,1.219,1
169,0.45,0.012,0.308,0.04,41.526,1.198,1
122,1.36,0.902,0.74,0.042,38.053,1.075,0
131,1.236,-0.744,-0.266,-0.482,33.211,0.988,0
145,1.522,-0.264,0.059,0.091,33.526,0.896,0
94,1.65,0.527,-1.02,1.211,34.526,1.001,0
133,1.588,0.223,0.509,-0.427,35.947,1.062,0
159,0.455,0.037,-0.292,-0.031,35.947,1.064,0
98,1.983,0.498,-3.609,0.178,38.684,1.237,0
146,0.386,0.354,-0.139,0.143,37.158,1.368,0
173,0.719,0.029,0.353,-0.375,37.842,1.215,1
178,0.143,-0.01,-0.089,-0.008,38.0,1.071,1
111,1.518,0.527,0.425,0.593,40.789,1.064,0
127,1.205,-0.182,-0.648,-0.139,41.0,0.99,0
177,0.189,-0.208,-0.05,-0.064,37.947,0.849,1
161,0.888,-0.918,-0.826,0.401,37.895,0.811,1
140,1.396,-0.205,-0.705,-0.151,34.684,0.898,0
152,1.819,-1.627,-0.001,0.019,34.105,0.955,0
106,2.461,0.96,-1.449,-0.646,33.947,1.055,0
145,1.215,1.143,0.471,0.257,32.474,1.073,0
148,0.79,0.343,0.587,-0.265,31.421,0.93,0
144,1.421,1.358,-0.609,-0.353,29.158,0.888,0
148,0.704,0.464,-0.04,0.008,28.895,0.93,0
169,0.82,-0.48,-0.145,0.049,29.263,0.813,0
184,0.119,-0.163,-0.015,0.017,27.368,0.806,1
91,1.857,0.819,-0.511,0.676,30.211,0.898,0
132,1.608,-0.378,0.027,0.203,31.0,1.079,0
151,0.482,0.073,-0.019,-0.322,28.789,0.983,1
177,0.255,-0.011,0.151,-0.047,27.632,0.962,1
163,0.629,-0.575,-0.137,-0.044,26.947,1.068,0
160,0.633,0.211,-0.506,-0.113,26.842,1.06,0
135,1.246,-0.534,-0.269,0.759,24.632,0.989,0
131,1.153,0.186,-0.711,-0.407,24.0,0.922,0
154,0.246,-0.144,-0.285,-0.006,22.579,0.735,1
154,0.689,0.446,0.074,0.358,21.737,0.718,0
73,2.032,1.025,0.7,-0.303,24.895,0.829,0
171,1.09,1.596,0.197,-0.2,29.421,0.818,0
153,0.929,-0.056,-0.21,0.073,27.947,0.819,0
80,1.522,0.521,0.789,0.776,29.737,0.925,0
173,0.348,0.165,0.165,0.048,34.474,0.956,1
178,0.102,-0.069,0.049,-0.045,34.526,0.784,1
142,1.682,-2.576,-0.406,-1.511,36.211,0.724,0
139,0.906,-0.301,0.26,0.08,35.263,0.793,0
129,1.305,0.029,-0.942,-0.388,35.0,0.906,0
141,1.115,-0.194,0.005,-0.265,30.737,0.911,0
156,1.379,-1.2,-0.799,-0.336,29.368,0.971,0
101,1.667,2.133,0.669,-1.334,31.263,1.007,0
98,1.043,-0.188,0.402,0.225,30.053,1.043,0
101,1.834,0.046,-0.767,0.619,29.474,1.339,0
91,1.643,-1.431,-0.4,-0.467,29.842,1.47,0
182,0.271,-0.154,-0.014,-0.178,33.316,1.212,1
154,0.634,-0.016,-0.596,0.492,34.579,1.208,1
175,0.209,-0.077,0.099,-0.041,34.474,1.136,1
98,1.377,0.065,0.578,0.528,38.526,1.071,0
174,0.303,0.099,0.21,0.088,38.263,1.051,1
163,1.137,-0.371,0.294,-0.4,33.684,1.273,0
73,2.18,-0.879,1.777,-1.672,37.474,1.304,0
156,0.765,-0.047,0.771,-0.538,38.0,1.253,1
165,0.766,0.237,0.4,-0.251,33.579,1.125,1
169,0.666,0.096,-0.621,-0.024,33.526,1.058,1
127,1.366,0.552,0.133,0.142,33.842,1.007,0
86,2.028,-0.958,1.688,0.257,35.842,1.003,0
162,0.399,-0.167,-0.004,0.016,39.316,0.97,1
165,0.952,0.054,-0.129,-0.494,38.842,0.833,0
81,2.267,1.075,0.708,0.841,42.474,0.824,0
69,2.466,-0.259,-0.302,0.533,40.211,1.04,0
165,0.732,0.316,-0.147,-0.025,45.105,1.075,0
134,1.439,-1.008,-0.121,0.871,46.579,1.203,0
99,1.933,0.928,0.619,0.125,47.895,1.25,0
133,1.351,0.391,-0.615,-0.333,44.895,1.322,0
128,1.556,-1.789,-0.961,0.064,43.684,1.264,0
171,0.491,0.109,0.249,-0.133,44.842,1.128,1
121,0.967,0.213,0.93,-0.102,43.421,1.149,0
165,0.575,0.157,-0.761,-0.045,41.737,1.176,1
122,1.505,0.304,0.146,0.907,43.421,1.262,0
101,1.675,0.709,0.237,0.028,39.789,1.282,0
156,1.041,-0.047,0.05,0.789,38.316,1.193,0
139,1.174,-1.464,-0.422,-0.643,38.737,1.292,0
116,1.415,0.0,0.257,-0.044,39.737,1.401,0
169,0.124,0.014,-0.035,0.042,40.316,1.204,1
140,1.622,0.254,0.778,0.344,39.684,1.005,0
95,1.964,1.565,0.018,-0.456,38.053,1.069,0
93,2.304,-1.81,0.666,1.024,38.0,1.045,0
166,0.77,0.143,0.6,-0.251,37.421,0.955,0
137,0.896,-0.919,-0.773,-0.102,38.316,0.884,0
102,1.816,0.139,0.608,-0.094,35.105,0.879,0
163,0.818,-0.667,-0.045,0.237,36.684,0.973,0
173,0.223,0.235,-0.086,-0.149,35.368,0.925,1
168,0.621,0.107,-0.133,0.045,33.842,0.936,1
157,1.375,-0.547,0.374,-0.11,34.158,0.891,0
140,1.928,-1.778,2.034,-0.118,32.789,0.89,0
159,0.863,0.609,-0.021,0.359,31.158,0.926,1
148,1.135,-1.026,0.1,-0.206,29.421,0.888,0
142,1.327,-1.258,-0.709,-0.183,27.474,0.864,0
137,1.608,-0.208,0.259,0.132,26.632,1.045,0
120,1.633,0.592,-1.277,-0.221,24.632,1.095,0
157,0.577,-0.312,-0.083,0.012,25.684,0.95,0
158,0.896,0.683,-0.377,-0.106,24.526,0.837,0
173,0.314,0.043,-0.015,0.122,22.526,0.865,1
139,1.492,-0.584,1.012,0.519,22.789,0.92,0
173,0.788,0.416,-0.165,0.108,22.211,0.851,0
144,0.934,-0.137,-0.153,0.482,23.632,0.842,1
146,1.382,-0.992,-2.016,-0.152,19.895,0.942,0
159,0.649,0.631,-0.119,0.111,19.053,0.941,1
85,1.952,0.886,-0.85,0.469,21.105,0.98,0
124,1.362,-0.037,-0.537,-0.554,19.947,0.935,0
134,1.002,0.9,-0.561,0.055,19.947,0.952,0
103,1.633,0.146,1.509,0.475,21.316,0.982,0
84,2.081,0.994,0.208,0.606,21.737,1.029,0
84,2.022,0.813,0.358,-0.119,20.842,0.971,0
93,2.39,-0.333,-0.647,0.845,20.316,1.01,0
160,0.685,0.975,-0.094,-0.198,23.263,1.094,0
86,1.378,-0.452,-0.081,0.508,26.842,1.217,0
112,1.592,1.233,-0.593,0.719,27.947,1.331,0
107,1.75,-1.394,-0.526,0.398,27.316,1.299,0
182,0.262,-0.371,-0.209,-0.059,29.316,1.351,1
153,0.327,0.089,0.045,-0.034,30.789,1.303,1
176,0.592,0.061,-0.018,-0.097,31.211,1.166,0
172,0.096,-0.07,0.05,-0.009,29.632,1.132,1
155,0.793,-0.535,-0.766,0.078,28.737,1.028,1
132,1.22,0.484,0.171,-0.108,28.421,1.054,0
178,0.279,-0.108,-0.106,-0.121,30.737,1.003,1
147,0.62,0.119,-0.041,-0.036,31.684,0.917,0
104,1.677,0.375,-0.566,-0.612,30.053,0.857,0
167,0.245,-0.226,0.321,-0.071,31.316,0.743,1
88,1.675,-0.288,0.138,-0.284,34.947,0.677,0
171,0.491,0.091,0.114,-0.119,37.684,0.664,1
136,1.46,-1.558,-0.208,-0.059,38.526,0.652,0
156,0.334,0.059,0.271,-0.001,39.579,0.554,0
183,0.268,0.15,-0.031,0.038,40.526,0.479,1
136,1.137,0.627,0.509,-0.063,39.474,0.532,0
78,1.514,0.411,-0.172,0.129,38.632,0.606,0
133,1.651,-0.005,-0.439,-0.756,40.158,0.684,0
164,0.443,-0.31,0.129,0.28,41.526,0.722,0
111,1.309,0.443,-0.565,0.251,40.368,0.797,0
122,1.526,0.019,0.0,-0.255,39.421,0.821,0
168,0.313,0.306,-0.174,-0.02,40.632,0.857,1
84,1.542,-0.67,-0.3,-0.123,44.842,0.969,0
175,0.207,0.095,0.083,-0.095,48.737,0.9,1
155,0.805,0.292,-0.126,-0.01,48.579,1.055,1
178,0.249,-0.168,-0.217,-0.007,47.368,1.004,1
176,0.243,-0.052,-0.013,-0.024,45.842,1.0,1
95,1.695,-1.7,-0.481,-0.544,47.842,1.012,0
138,0.831,0.137,-0.048,0.505,46.789,1.162,0
150,0.472,0.167,0.199,0.414,43.263,1.348,0
77,2.226,0.361,-2.146,0.337,42.737,1.34,0
165,0.277,0.244,-0.133,0.002,45.526,1.112,1
166,0.679,0.47,-0.149,-0.071,44.526,0.952,1
163,1.137,0.149,1.138,-0.521,43.263,0.979,0
187,0.318,0.021,0.004,-0.013,42.053,0.874,1
163,0.748,-0.067,-0.682,0.008,40.263,0.803,0
126,1.263,-0.255,0.167,-0.543,39.316,0.866,0
177,0.301,-0.119,0.06,0.121,40.368,0.735,1
131,1.611,0.826,0.528,-0.173,40.0,0.911,0
139,1.202,1.097,-0.36,-0.781,39.842,0.903,0
183,0.07,0.059,0.057,-0.029,39.737,0.987,1
179,0.135,0.062,0.064,0.093,35.526,0.997,1
163,0.795,0.294,-0.027,-0.046,31.579,0.912,0
86,1.609,0.132,-0.313,0.242,34.579,0.935,0
168,0.195,-0.089,0.011,-0.044,37.684,0.902,1
96,1.948,1.214,0.236,0.28,41.368,0.818,0
136,1.796,0.893,1.01,-0.142,39.211,1.001,0
163,0.236,0.166,-0.013,-0.029,38.368,1.043,1
136,1.201,-1.461,-0.24,-0.402,39.158,0.994,0
88,1.952,-1.18,-0.901,0.299,37.842,1.203,0
99,1.839,-2.608,1.098,0.04,33.789,1.376,0
133,1.56,0.149,0.085,-0.053,35.526,1.296,0
117,1.451,0.138,-0.107,-0.429,36.211,1.537,0
80,1.784,0.736,1.066,0.436,36.895,1.382,0
176,0.448,0.469,0.188,-0.225,40.684,1.284,1
130,1.245,-0.575,-0.47,0.849,41.158,1.392,0
167,0.438,-0.489,0.081,-0.002,40.421,1.426,1
129,1.344,0.762,0.332,0.232,40.0,1.578,0
115,0.946,0.125,-0.988,-0.113,40.316,1.431,0
78,2.137,0.341,0.817,0.52,39.947,1.617,0
109,1.855,0.689,0.016,0.106,41.368,1.646,0
161,0.594,0.25,0.258,-0.027,43.263,1.378,1
162,0.738,-0.029,-1.232,-0.019,39.263,1.461,0
124,1.406,0.312,0.264,-0.589,36.947,1.47,0
121,1.007,0.589,0.271,0.528,33.316,1.248,0
89,2.023,0.009,2.113,-0.964,32.895,1.175,0
98,1.123,1.083,1.075,-0.342,31.947,1.127,0
158,0.628,-0.079,-0.121,-0.073,33.684,1.007,1
92,1.658,1.701,-1.23,0.195,34.632,0.99,0
160,0.81,-0.546,-0.749,0.067,37.632,1.055,1
161,0.591,0.171,-0.463,0.023,35.895,0.951,0
167,0.566,-0.449,-0.051,-0.066,35.368,0.942,1
91,1.496,-0.538,0.354,0.161,37.421,0.923,0
121,1.076,0.004,0.581,-0.313,33.947,0.963,0
174,0.385,-0.259,-0.377,0.083,34.316,0.785,1
78,1.257,0.542,0.168,0.004,37.421,0.759,0
118,1.027,0.499,0.58,0.071,37.526,0.83,0
176,0.279,0.055,0.026,0.041,39.842,0.785,1
150,0.741,0.267,-0.566,-0.293,39.263,0.743,1
145,1.55,-0.726,1.157,-1.031,37.895,0.809,0
93,1.492,0.153,0.121,-0.1,37.895,0.774,0
90,1.975,-2.139,1.186,-0.243,38.0,0.838,0
147,1.195,0.713,-0.03,-0.067,39.0,0.909,0
156,0.384,0.341,0.117,-0.187,39.316,0.843,0
72,1.662,-0.395,2.765,-0.865,42.053,0.873,0
178,0.179,0.187,0.306,-0.015,47.158,0.883,1
93,1.448,1.134,0.814,-0.665,48.474,0.927,0
84,1.027,0.274,-0.024,0.415,45.474,0.892,0
139,1.609,-0.121,-0.244,0.185,44.789,0.916,0
99,1.797,1.223,-1.429,0.52,46.842,1.105,0
165,0.785,-0.042,-0.407,0.3,50.0,1.117,1
153,0.537,0.638,0.075,0.105,46.632,1.055,1
116,0.821,0.365,0.434,0.153,47.0,1.122,0
147,0.919,0.601,0.576,-0.258,45.842,1.185,0
154,1.099,-0.316,-0.386,0.091,41.158,1.113,0
179,0.274,-0.031,0.137,-0.019,40.368,1.07,1
92,1.555,0.759,-0.263,0.05,41.895,0.985,0
181,0.162,-0.125,-0.007,-0.044,45.211,0.886,1
144,0.789,0.253,0.552,-0.107,46.895,0.989,0
87,1.623,1.266,-2.245,0.602,47.158,0.933,0
84,1.208,-0.829,0.205,0.033,47.158,1.025,0
115,1.024,-0.091,-0.545,-0.251,45.789,0.943,0
130,1.197,0.48,0.569,0.543,46.105,0.982,0
127,0.907,-0.948,0.585,-0.093,41.842,0.907,0
176,0.454,-0.266,0.296,-0.004,38.842,0.758,1
144,1.289,-0.454,0.257,0.197,36.053,0.808,0
174,0.465,0.499,-0.26,0.282,37.158,0.827,1
165,0.968,-0.178,-0.667,0.345,34.737,0.81,0
152,1.659,0.43,-0.046,-0.218,33.316,0.844,0
176,0.825,-0.444,-0.01,-0.092,31.105,0.851,1
79,2.157,-1.808,1.735,0.093,35.579,1.036,0
160,1.036,0.033,0.556,-0.324,37.895,1.031,1
78,1.885,0.516,0.79,0.26,40.579,1.226,0
109,1.814,2.177,0.561,-0.247,41.842,1.262,0
184,0.199,-0.089,-0.015,-0.025,44.474,1.168,1
141,1.631,1.904,-0.792,0.716,42.158,1.119,0
170,1.012,-0.412,1.316,0.334,39.0,1.149,1
178,0.107,0.023,-0.137,-0.06,37.474,1.066,1
98,1.699,-0.134,0.107,0.298,38.684,1.17,0
183,0.233,0.375,-0.085,0.122,43.0,1.272,1
159,0.561,-0.151,-0.311,-0.004,42.632,1.173,1
150,1.318,-0.172,-0.482,0.193,42.316,1.241,0
147,1.293,0.943,0.34,-0.001,42.316,1.251,0
172,0.213,-0.008,-0.035,0.179,41.053,1.089,1
94,1.62,0.419,0.34,0.438,43.474,1.165,0
93,1.485,0.257,0.472,0.456,41.947,0.989,0
113,0.92,1.041,-0.853,0.318,42.526,1.014,0
96,1.751,-0.751,0.228,-0.177,42.737,0.907,0
95,1.995,-2.044,-0.699,1.82,41.526,0.866,0
168,0.563,0.221,0.381,-0.034,40.263,0.96,0
175,1.016,0.309,-0.263,0.744,36.368,0.901,0
159,0.287,-0.149,-0.132,-0.045,32.895,0.861,1
113,1.726,-1.535,0.817,0.455,33.684,1.017,0
179,0.396,-0.145,0.025,0.089,33.211,0.894,1
170,0.25,0.128,0.187,0.013,31.421,0.907,1
145,1.311,0.102,-1.184,-0.219,31.211,0.993,0
181,0.127,0.034,0.151,-0.011,32.684,0.874,1
167,0.667,-0.292,0.004,0.28,29.211,0.822,1
91,1.319,0.134,0.301,0.607,28.737,0.966,0
179,0.327,0.074,0.337,0.153,32.105,0.843,1
170,0.077,-0.036,-0.054,-0.047,32.105,0.791,1
50,1.466,-1.564,1.008,0.41,38.263,0.83,0
179,0.197,0.011,-0.107,-0.025,43.737,0.739,1
90,2.075,1.091,0.665,0.195,44.316,0.736,0
179,0.311,-0.015,-0.06,0.016,48.947,0.704,1
164,0.756,-0.088,0.015,-0.107,48.684,0.715,0
132,1.145,0.384,-0.986,0.046,49.474,0.807,0
81,1.806,-0.465,0.087,0.066,52.105,0.733,0
152,0.713,-0.185,-0.283,0.085,52.0,0.816,1
158,0.716,0.235,0.312,0.309,51.947,0.845,1
184,0.124,0.088,0.061,-0.01,52.474,0.733,1
91,1.821,-0.594,0.902,-1.017,54.947,0.904,0
128,0.71,-0.474,0.486,0.103,53.421,0.947,0
142,0.968,0.396,0.168,0.677,53.684,0.856,0
94,1.358,-0.297,0.023,-0.686,54.895,1.007,0
181,0.401,-0.568,0.308,0.007,57.579,1.144,1
140,1.468,-1.194,-0.211,0.005,59.0,1.097,0
184,0.377,-0.043,-0.136,-0.088,57.316,1.258,1
129,1.712,-1.116,-0.097,0.165,55.579,1.219,0
91,1.909,-0.017,-0.666,-1.124,57.105,1.383,0
174,0.301,0.185,0.092,-0.066,55.158,1.375,1
166,0.673,-0.072,-0.039,0.103,48.789,1.239,0
149,1.248,-0.933,-0.619,-0.324,45.0,1.185,0
188,0.262,-0.016,-0.055,-0.107,42.368,1.119,1
89,1.733,-0.652,0.226,0.034,46.789,1.157,0
170,0.239,0.032,-0.024,0.015,49.368,1.283,1
166,0.865,0.637,0.185,0.504,46.895,1.052,1
88,2.303,1.282,-0.871,0.258,47.263,1.166,0
91,1.425,0.624,0.97,0.26,47.105,1.232,0
122,1.007,-0.031,-0.466,-0.267,47.368,1.118,0
136,1.415,-1.655,1.078,0.427,43.211,1.163,0
95,2.098,-0.16,1.229,-1.283,43.421,1.206,0
171,0.287,0.032,0.08,0.109,46.684,1.185,1
83,1.717,1.056,0.936,-0.514,48.789,1.215,0
122,1.554,-0.409,0.539,0.505,46.263,1.072,0
101,1.55,0.869,-0.402,0.592,45.211,1.183,0
89,1.887,2.964,-1.689,0.069,43.526,1.301,0
161,0.537,0.018,0.278,0.035,44.421,1.302,1
79,1.542,0.025,0.694,-0.025,46.737,1.435,0
165,0.762,0.119,0.602,0.131,46.895,1.274,0
160,0.619,0.36,-0.577,0.187,46.737,1.289,1
155,0.618,0.13,0.074,0.391,46.105,1.359,0
83,1.845,0.971,0.729,0.347,47.842,1.193,0
141,1.311,0.209,-0.47,-0.325,45.684,1.152,0
144,1.415,0.855,-0.53,-0.092,41.579,1.203,0
163,0.747,0.239,0.319,-0.24,42.368,1.092,1
189,0.138,0.138,-0.02,-0.02,39.632,0.941,1
124,1.082,-0.83,0.069,-0.024,42.895,0.991,0
171,0.613,-0.322,0.216,0.123,43.737,0.928,1
76,1.988,2.124,0.676,0.38,48.0,0.972,0
166,0.721,0.216,0.19,0.196,50.579,0.861,1
154,0.439,-0.812,0.106,-0.085,47.211,0.734,0
184,0.403,0.216,0.103,-0.218,44.158,0.754,1
166,0.734,0.005,0.014,-0.114,43.053,0.666,1
73,1.269,-0.536,0.489,0.192,46.842,0.726,0
174,0.464,-0.284,-0.199,-0.06,51.526,0.704,1
169,0.31,-0.16,-0.112,-0.194,48.0,0.697,1
81,1.737,-0.962,0.079,0.168,48.316,0.709,0
171,0.332,-0.252,0.352,0.289,48.526,0.661,0
143,1.456,-0.531,0.374,-0.308,49.737,0.649,0
161,0.506,-0.095,-0.477,0.187,50.421,0.659,1
98,1.821,0.417,0.085,0.111,49.947,0.839,0
151,0.522,0.017,0.462,0.113,49.684,0.769,1
165,0.932,0.774,-0.268,-0.539,50.263,0.84,0
93,2.546,0.208,0.553,-0.933,53.053,0.852,0
144,0.733,0.36,0.347,0.311,54.368,0.898,0
127,1.433,-1.538,-0.643,-0.767,51.842,1.057,0
135,1.647,-1.292,-0.704,0.218,49.789,1.154,0
139,0.641,-0.154,-0.481,-0.31,45.0,1.217,0
160,0.291,0.134,-0.164,-0.183,41.368,1.103,1
189,0.297,-0.056,0.367,0.102,42.263,1.103,1
180,0.371,-0.091,0.347,-0.079,41.158,1.133,1
90,1.938,-0.599,2.043,0.899,44.947,1.157,0
186,1.116,1.655,-0.021,-0.072,45.105,1.312,1
145,1.301,-0.387,0.176,0.536,41.947,1.295,0
126,1.56,0.651,1.377,0.425,42.684,1.407,0
168,0.626,-0.61,0.676,-0.103,40.263,1.15,1
162,0.63,-0.363,0.164,-0.13,35.842,1.206,1
117,1.501,-0.537,0.839,0.886,36.737,1.22,0
78,1.989,-0.743,-1.254,0.477,37.842,1.133,0
127,1.459,-0.02,0.709,-0.413,37.105,1.183,0
160,0.394,0.14,0.31,0.179,36.053,1.037,0
88,1.969,0.461,0.333,0.222,39.105,0.978,0
134,1.348,-0.836,0.342,0.305,37.737,1.027,0
165,0.681,-0.764,-0.662,-0.037,36.684,1.118,0
129,1.121,-1.599,0.471,0.747,37.684,1.184,0
181,0.194,-0.102,-0.007,0.013,40.0,1.168,1
85,1.827,-0.041,-0.922,0.922,44.842,1.145,0
117,1.318,0.586,0.502,0.123,45.421,1.102,0
86,1.726,0.041,-1.183,-0.397,45.526,1.139,0
167,0.264,-0.191,-0.047,-0.052,49.316,0.994,1
133,1.469,-0.144,-0.559,-0.182,46.368,1.121,0
155,0.688,-0.309,-0.131,-0.011,42.474,1.117,1
185,0.19,-0.033,-0.231,-0.091,41.895,1.0,1
78,2.045,-0.361,-1.007,0.27,46.526,1.039,0
162,0.827,-0.2,0.37,0.368,48.737,0.956,0
162,0.0,0.0,0.0,0.0,48.421,0.994,1
173,0.158,0.15,0.091,0.092,46.632,0.862,1
90,1.584,-0.16,1.879,0.25,48.947,0.839,0
179,0.418,-0.009,0.19,0.257,51.053,0.805,1
150,1.186,0.292,1.221,0.151,50.842,0.772,0
178,0.353,-0.256,0.346,0.095,48.526,0.788,1
177,0.28,-0.376,0.055,0.123,46.158,0.706,1
188,0.213,-0.004,0.187,0.009,45.105,0.636,1
148,1.228,-0.648,0.248,0.069,45.316,0.594,0
123,1.176,0.079,0.033,0.452,43.895,0.693,0
172,0.747,-0.191,0.322,0.065,41.421,0.62,1
160,0.732,0.641,-0.091,0.028,40.368,0.621,0
132,1.055,-0.172,-0.565,0.366,40.211,0.721,0
144,1.892,1.569,-1.526,0.485,36.579,0.71,0
83,1.933,-0.622,-1.02,0.334,38.0,0.807,0
94,1.97,1.391,-1.518,0.012,37.421,0.953,0
79,1.59,-0.17,-2.444,-0.388,36.632,1.18,0
133,1.171,-0.475,0.929,-0.302,33.842,1.131,0
152,1.482,0.076,0.487,0.059,30.421,1.23,0
160,0.106,0.049,0.128,0.029,30.842,1.147,1
162,0.061,-0.01,-0.073,-0.038,30.368,1.113,1
89,1.408,-0.473,0.69,-0.901,29.842,1.341,0
93,1.862,-0.445,-1.159,-0.438,25.368,1.615,0
156,0.791,-1.401,-0.248,-0.206,27.158,1.649,1
139,1.74,3.093,-0.345,0.025,26.579,1.569,0
154,0.77,0.84,0.315,0.051,27.316,1.673,1
126,1.766,0.042,-0.707,0.191,28.211,1.759,0
163,0.857,-0.506,-0.52,-0.065,28.053,1.616,1
97,1.509,0.236,0.506,0.529,30.211,1.605,0
176,0.273,0.216,-0.093,0.033,31.789,1.34,1
159,0.827,0.202,-0.465,-0.33,32.053,1.086,1
121,1.068,0.534,0.145,-0.302,32.579,0.959,0
174,0.269,0.017,-0.036,-0.017,34.737,0.928,1
130,2.014,-1.463,0.453,1.282,33.842,0.901,0
131,1.143,1.317,-0.853,-0.361,33.316,1.027,0
129,1.597,-0.569,-0.36,0.657,32.632,1.144,0
126,0.752,0.729,-0.155,-0.174,29.947,1.028,0
152,0.754,0.506,0.227,0.246,30.316,0.876,0
72,1.645,1.384,0.573,0.434,34.105,0.945,0
172,0.191,0.149,-0.089,0.007,39.263,0.833,1
125,1.119,-0.225,-0.885,0.226,37.895,0.85,0
134,1.583,1.431,-0.69,1.021,38.158,0.796,0
122,0.868,-0.106,-0.539,0.259,35.474,0.805,0
133,1.237,-0.705,0.2,0.84,35.158,0.807,0
174,0.315,-0.105,0.141,-0.106,36.526,0.886,1
139,1.114,-0.393,-0.343,0.459,36.895,0.967,0
77,1.037,-0.629,0.873,-0.107,38.211,0.997,0
159,0.746,-0.085,-0.743,-0.297,39.053,1.09,1
169,0.176,0.241,0.192,0.025,35.421,0.932,1
143,1.322,-0.412,-0.661,0.158,35.895,0.884,0
85,1.729,-0.508,-2.646,0.2,36.947,0.815,0
99,1.523,-1.358,0.406,-0.029,34.895,0.891,0
114,1.57,-0.576,2.02,-0.121,33.368,1.003,0
70,1.908,1.725,0.162,-0.383,35.632,0.968,0
169,0.732,0.248,-0.301,0.068,40.737,1.1,0
163,0.285,-0.026,-0.097,0.065,40.895,1.023,1
134,1.851,-1.864,-1.405,-0.079,41.053,1.052,0
97,1.857,-0.202,-0.276,0.65,38.789,1.115,0
129,1.328,0.538,-0.959,0.575,35.211,1.14,0
168,0.637,1.028,0.245,0.119,34.789,1.158,1
148,0.912,0.798,0.665,0.52,35.368,1.124,0
125,0.803,-0.844,0.868,0.211,35.947,1.111,0
125,1.244,-0.454,0.232,0.175,35.368,1.109,0
134,1.243,0.441,-1.593,0.177,33.684,1.327,0
139,0.961,-0.13,0.079,-0.127,32.105,1.285,0
92,2.311,0.254,-1.94,-0.174,31.316,1.314,0
149,0.466,-0.035,0.166,-0.109,30.0,1.179,1
148,1.254,0.538,-0.296,0.013,29.526,1.1,0
157,0.969,0.366,0.537,0.16,28.632,1.025,1
154,0.215,-0.048,0.079,0.035,25.737,0.962,1
158,0.804,-0.492,0.266,0.175,25.211,1.044,1
90,2.118,-0.411,0.94,-0.025,28.0,1.043,0
126,1.507,0.307,1.375,-0.119,27.579,0.964,0
178,0.436,0.383,0.24,0.099,25.105,0.908,1
174,0.437,-0.084,0.22,0.161,25.0,0.88,1
133,1.604,0.858,0.427,0.231,25.632,0.929,0
163,0.776,-0.389,-0.858,-0.369,25.263,0.94,1
153,1.453,0.529,-0.939,0.322,24.105,0.926,0
179,0.284,0.185,-0.096,-0.013,23.421,0.823,1
156,0.297,-0.387,-0.17,-0.058,23.579,0.803,1
76,1.82,0.47,-0.379,-0.479,26.579,0.753,0
128,1.311,-0.839,0.186,-0.046,29.316,0.844,0
156,0.633,-0.264,0.008,-0.235,30.316,0.824,1
90,1.614,-0.359,-0.223,0.392,33.526,0.908,0
158,0.748,0.091,0.256,0.311,34.632,0.97,1
141,1.015,-0.007,0.109,-0.012,32.526,0.952,0
156,1.34,-2.105,1.073,-0.287,33.263,0.892,0
176,0.291,-0.052,0.129,0.097,33.842,0.838,1
123,1.256,-0.393,-0.704,0.451,36.474,0.937,0
169,0.87,-0.635,-0.128,-0.179,38.684,0.977,1
145,0.835,0.556,0.279,0.154,36.368,0.888,1
162,0.692,-0.27,-0.387,0.099,35.368,0.885,1
92,1.731,0.442,1.571,-0.602,36.316,0.89,0
127,1.198,1.043,-0.807,-0.261,37.947,1.004,0
153,1.001,0.204,-0.349,0.585,37.158,1.096,1
182,0.069,0.016,0.072,-0.014,37.105,1.012,1
99,1.831,-0.688,-1.217,0.66,40.947,0.99,0
152,0.986,0.155,0.146,-0.016,42.368,1.056,1
149,0.84,0.339,0.189,-0.323,41.316,0.961,0
154,0.638,-0.328,-0.197,-0.085,37.368,0.921,1
153,0.693,-0.005,0.403,-0.265,34.684,0.889,0
79,1.848,-0.613,-0.539,0.109,37.105,0.968,0
129,1.168,-0.566,-0.534,0.366,36.263,1.114,0
129,1.23,0.057,0.515,0.231,32.684,1.051,0
148,1.374,-0.584,-0.233,-0.468,32.789,1.054,0
165,0.91,-0.226,-0.516,-0.014,32.895,1.115,1
172,0.19,0.008,-0.242,-0.047,32.211,1.086,1
140,1.596,0.428,-0.613,-0.544,31.105,1.057,0
94,1.733,1.07,0.059,1.126,31.105,1.029,0
145,0.664,-0.04,0.454,-0.095,32.526,0.964,0
155,0.559,0.254,0.278,-0.274,32.158,1.113,0
93,1.595,0.005,1.461,-0.466,31.737,1.059,0
111,1.149,-0.874,1.529,0.298,30.842,1.046,0
142,1.503,1.058,0.015,0.359,31.105,1.146,0
182,0.159,-0.087,0.025,0.018,31.684,1.122,1
179,0.191,0.001,-0.134,-0.045,27.474,1.112,1
131,0.956,-0.713,0.25,0.288,27.211,1.013,0
164,0.731,0.766,0.42,-0.11,28.789,0.929,0
91,1.812,0.603,1.461,-0.339,32.368,0.967,0
126,1.455,-0.876,-0.096,-0.714,34.158,0.942,0
151,1.398,1.142,0.033,0.089,31.579,0.968,0
85,2.094,-0.265,3.004,-0.049,32.421,1.12,0
178,0.168,0.014,0.166,0.043,37.316,1.038,1
105,1.311,-1.128,-1.136,0.305,40.158,0.978,0
98,2.196,-2.127,1.967,-0.167,39.632,1.096,0
144,1.013,-0.254,-0.53,-0.408,41.684,1.09,0
131,1.361,-0.97,-0.399,0.075,40.684,1.092,0
174,0.186,-0.045,0.231,-0.061,40.526,1.021,1
177,0.152,0.029,0.107,-0.022,38.0,0.901,1
157,0.532,0.39,0.02,-0.3,38.526,0.95,0
167,0.416,0.477,0.166,-0.183,35.789,0.994,1
162,0.801,-0.644,-0.078,0.247,35.105,1.043,1
126,1.962,0.148,1.175,0.025,35.368,1.159,0
180,0.171,0.143,-0.078,0.088,36.105,1.006,1
149,1.066,1.428,0.74,-0.721,37.579,0.975,0
129,1.641,-0.73,1.514,-0.345,36.105,0.96,0
78,1.659,-1.999,-0.095,0.115,37.053,0.832,0
174,0.192,0.235,0.026,-0.114,38.263,0.907,1
155,0.452,0.011,0.279,-0.125,37.421,0.876,1
159,0.811,0.606,-0.562,-0.583,36.316,0.719,1
169,0.252,0.179,-0.342,-0.012,33.368,0.657,1
179,0.158,0.043,0.018,0.029,29.0,0.597,1
102,1.507,-0.309,0.302,0.23,29.211,0.712,0
160,1.136,-0.579,-0.272,-0.257,31.895,0.84,0
163,0.62,0.703,-0.421,-0.217,29.632,0.826,0
154,0.815,0.579,0.393,-0.101,29.421,0.839,1
86,2.161,-0.713,0.361,0.101,30.737,0.934,0
80,1.43,-0.804,0.095,-0.593,30.895,0.835,0
169,0.629,0.137,0.305,0.011,34.526,0.955,1
74,2.296,0.723,1.873,0.602,39.0,1.063,0
134,1.454,-1.163,-0.872,0.888,41.895,1.033,0
132,1.214,-0.182,0.385,0.319,40.105,1.033,0
146,1.934,0.978,1.506,-0.043,38.0,1.151,0
180,0.292,-0.417,-0.042,-0.003,38.158,1.211,1
102,1.454,0.021,-0.938,0.548,41.211,1.398,0
141,1.678,0.486,0.636,0.238,40.579,1.611,0
91,1.76,0.639,-1.112,0.042,38.158,1.95,0
148,1.256,0.023,-1.134,0.383,40.158,1.71,0
96,2.034,1.788,0.389,-0.339,42.684,1.648,0
68,1.654,1.783,0.436,0.083,43.632,1.718,0
158,1.608,-0.28,-1.15,-0.404,47.842,1.726,0
167,0.619,-0.046,0.02,-0.292,44.263,1.459,0
171,0.246,0.075,0.08,0.065,41.421,1.43,1
179,0.431,-0.033,-0.048,0.156,41.684,1.372,1
178,0.317,0.034,0.19,0.0,41.263,1.139,1
140,1.232,0.055,-1.807,0.441,39.684,1.138,0
170,0.301,-0.12,0.013,-0.057,40.947,1.112,1
139,1.154,-0.469,-0.48,0.213,37.895,0.951,0
147,0.328,-0.15,0.108,0.123,33.316,0.962,1
144,1.445,1.176,0.392,0.194,30.316,0.926,0
153,1.062,0.424,0.41,0.188,30.684,0.823,0
169,0.238,0.038,-0.062,0.022,30.789,0.683,1
98,2.394,-1.997,1.049,0.615,32.737,0.748,0
179,0.154,0.062,0.031,0.059,32.895,0.627,1
135,0.835,-0.245,0.224,0.293,33.158,0.56,0
176,0.24,-0.125,-0.002,-0.042,32.684,0.481,1
86,1.67,-1.719,0.301,0.338,34.421,0.565,0
166,0.807,0.392,0.143,-0.427,35.895,0.626,1
179,0.34,0.019,-0.022,-0.049,35.105,0.628,1
189,0.335,0.068,0.091,0.006,30.895,0.698,1
160,0.67,-0.448,-0.217,0.091,31.947,0.675,0
173,0.07,0.024,-0.068,-0.016,32.421,0.698,1
95,1.683,-0.052,1.328,-0.511,36.105,0.765,0
84,1.727,-1.517,1.174,0.264,36.632,0.851,0
144,1.325,0.035,-0.22,-0.231,37.789,0.844,0
172,1.255,0.782,-0.932,0.375,37.684,0.89,0
108,1.142,-0.241,0.564,-0.006,39.421,1.052,0
134,1.215,0.385,0.44,-0.605,40.368,0.894,0
136,1.711,1.042,-2.275,-0.067,40.316,1.14,0
179,0.25,-0.112,-0.011,-0.021,42.105,1.168,1
136,1.689,-0.803,-0.492,-0.003,43.526,1.445,0
166,0.668,-0.384,0.285,0.16,41.368,1.236,1
183,0.244,-0.074,-0.094,0.021,38.0,1.136,1
133,1.499,0.549,1.476,0.22,38.316,1.237,0
90,1.893,0.733,0.498,-0.149,38.421,1.36,0
129,1.66,0.385,0.988,0.192,35.737,1.506,0
80,1.442,-0.276,-1.239,1.222,34.105,1.653,0
144,0.969,-0.555,0.798,0.093,36.789,1.523,0
166,0.742,0.107,0.664,-0.259,37.421,1.295,0
152,0.669,0.477,0.037,-0.136,36.632,1.258,0
169,0.124,-0.036,-0.024,0.058,36.842,1.158,1
153,0.781,0.384,0.443,-0.161,33.579,1.062,0
88,1.67,-1.455,0.193,0.448,36.421,1.189,0
185,0.136,0.041,-0.102,0.004,38.368,0.961,1
182,0.126,-0.09,0.121,-0.029,37.053,0.991,1
152,0.944,0.963,1.977,-0.09,35.263,0.854,0
130,0.792,-0.402,0.092,-0.002,35.053,0.92,0
161,0.841,-0.061,0.468,-0.242,36.579,0.998,1
87,1.208,-0.485,-1.798,-0.41,38.211,0.904,0
172,0.708,-0.343,0.118,0.033,40.421,0.752,0
161,0.626,-0.181,0.319,-0.232,39.421,0.653,1
162,0.547,0.107,-0.373,-0.086,38.579,0.561,1
110,1.233,-0.051,0.026,0.051,38.684,0.596,0
144,0.627,-0.571,-0.488,-0.33,38.211,0.623,0
87,2.157,0.255,0.446,0.764,39.158,0.734,0
179,0.246,-0.15,-0.118,-0.098,41.421,0.794,1
171,0.883,-0.804,0.515,0.305,38.474,0.819,0
158,0.649,0.017,0.317,-0.116,38.0,0.732,0
138,1.02,-0.384,-0.215,-0.149,38.316,0.873,0
177,0.342,0.121,0.129,-0.006,39.474,0.896,0
87,2.002,0.994,-0.261,0.199,43.368,1.023,0
129,0.956,-0.383,0.019,0.103,42.158,1.026,0
188,0.298,-0.049,0.113,0.05,40.158,0.945,1
164,0.498,0.008,0.096,0.137,41.263,0.914,1
171,0.197,-0.116,-0.15,0.01,40.053,0.958,1
98,1.685,-0.087,-0.561,-0.021,42.737,1.132,0
179,0.121,0.053,-0.08,0.001,45.368,1.187,1
185,0.103,-0.026,-0.03,0.0,41.789,1.057,1
119,1.465,-0.675,-0.989,-0.218,40.789,1.144,0
155,1.441,2.349,-1.662,0.09,42.105,0.951,0
94,2.461,0.933,0.186,0.374,45.263,1.117,0
167,0.163,-0.114,-0.012,0.046,46.368,1.051,1
86,1.716,-0.267,1.233,0.358,48.842,1.234,0
128,0.881,0.425,-0.051,-0.154,48.053,1.136,0
135,1.439,-0.072,1.456,0.532,43.579,1.203,0
165,0.954,0.215,0.347,0.141,44.737,1.036,0
180,0.249,-0.179,-0.267,0.063,44.842,0.973,1
182,0.344,0.075,0.344,-0.091,43.895,1.016,1
175,0.37,0.078,-0.33,0.027,42.211,1.062,1
138,1.277,0.416,-0.021,-0.13,39.421,1.194,0
89,1.563,0.08,-0.455,-0.118,39.789,1.091,0
183,0.269,0.365,0.026,-0.045,41.632,1.138,1
194,0.364,0.12,-0.133,0.062,40.947,1.269,1
162,0.435,0.312,-0.099,0.063,42.263,1.103,1
182,0.189,-0.03,0.105,0.061,39.474,1.065,1
140,1.265,-0.071,-0.029,-0.314,37.421,0.813,0
169,0.761,0.838,-0.756,0.144,38.632,0.901,1
158,0.707,0.459,0.057,-0.031,35.737,0.765,1
147,0.906,-1.189,0.095,0.065,34.421,0.774,0
103,1.935,-0.786,1.413,0.82,33.526,0.751,0
125,1.81,0.612,-0.793,0.482,30.842,0.866,0
90,1.239,0.61,-1.409,0.005,28.421,0.983,0
126,0.571,0.373,0.179,-0.048,28.105,0.996,0
95,1.866,1.176,0.121,-0.01,29.368,1.116,0
122,1.293,-0.152,1.131,-0.436,29.211,1.035,0
176,0.189,-0.198,-0.247,-0.017,31.263,0.949,1
104,1.991,0.415,3.163,0.271,34.947,1.056,0
82,1.577,0.705,-0.114,-0.656,35.737,1.119,0
136,1.755,-1.502,-2.177,-0.607,36.632,1.296,0
158,0.677,-0.146,-0.089,0.234,35.211,1.463,0
154,0.91,0.18,-0.132,0.252,30.474,1.585,0
124,1.24,-0.955,-0.841,-0.141,31.474,1.546,0
98,1.569,-0.879,-1.519,0.033,31.158,1.764,0
172,0.084,0.022,-0.014,-0.004,34.0,1.686,1
166,0.653,-0.476,-0.612,-0.246,32.105,1.503,1
91,1.84,-1.873,0.396,0.639,34.526,1.403,0
184,0.323,0.059,-0.155,0.166,38.842,1.231,1
145,1.563,-1.452,0.745,0.045,40.316,1.283,0
166,0.574,-0.396,0.006,-0.112,39.105,1.071,1
124,1.589,-0.878,0.159,0.214,40.158,1.09,0
120,1.393,0.39,-0.081,0.008,38.526,1.285,0
182,0.241,0.281,-0.006,0.007,39.895,1.03,1
133,1.05,-0.205,-0.198,-0.111,40.842,0.924,0
131,1.548,-0.38,0.204,-0.235,39.526,0.845,0
193,0.234,0.167,-0.092,0.041,39.947,0.799,1
158,0.58,-0.029,0.631,0.018,38.0,0.796,0
106,2.021,0.631,0.19,0.532,39.579,0.818,0
154,0.794,-0.099,-0.235,0.025,39.263,0.742,0
134,1.581,1.039,1.743,0.2,39.158,0.854,0
182,0.222,0.203,-0.127,-0.039,41.474,0.893,1
91,1.787,-0.177,-0.767,0.288,44.684,0.888,0
167,0.57,0.047,0.524,0.149,47.316,0.952,1
83,1.538,-0.536,1.106,0.517,47.842,0.897,0
152,0.663,-1.027,0.085,-0.255,51.158,0.974,1
93,1.38,-0.402,0.354,-0.115,50.316,0.944,0
158,1.249,0.224,0.889,-0.168,48.842,0.871,0
125,0.979,0.467,1.142,0.108,48.526,1.013,0
140,1.291,1.08,-1.275,-0.161,48.211,1.063,0
112,1.883,-0.293,0.438,0.464,47.474,1.1,0
149,0.786,0.169,0.888,-0.112,49.211,1.17,1
165,0.077,0.01,-0.018,0.026,46.789,1.162,1
105,1.601,0.548,-1.108,-0.531,47.368,1.075,0
166,0.63,0.736,0.09,0.011,50.474,1.121,0
125,0.607,0.036,-0.287,-0.143,49.368,0.955,0
130,1.358,-1.173,-0.042,-0.734,47.789,1.054,0
146,0.982,0.422,0.681,-0.975,45.895,1.006,0
133,0.69,-0.495,1.401,-0.008,44.053,0.998,0
153,0.993,0.383,-1.323,0.291,44.053,0.965,1
159,0.76,0.262,0.163,0.024,41.842,0.966,1
91,1.617,-0.045,0.266,0.054,40.632,0.994,0
148,0.928,-0.548,-0.171,0.163,39.632,0.982,1
119,0.813,0.114,-0.174,0.214,36.737,0.927,0
176,0.268,0.297,0.065,-0.194,36.105,0.851,1
125,1.37,-1.186,0.64,0.015,35.684,0.804,0
157,0.552,-0.042,-0.3,0.044,33.947,0.765,1
126,1.299,0.962,0.333,-0.301,33.842,0.86,0
181,0.294,-0.027,-0.004,-0.069,35.947,0.803,1
166,0.551,0.016,-0.071,-0.233,35.263,0.806,1
177,0.219,0.077,-0.254,0.028,33.895,0.832,1
158,0.82,-1.234,-0.019,0.004,34.053,0.741,1
143,0.946,0.484,0.278,-0.056,31.684,0.777,0
155,0.856,0.02,-0.638,-0.281,29.105,0.782,1
175,0.253,0.029,0.076,0.029,28.0,0.761,1
153,0.385,0.012,-0.17,0.099,28.895,0.732,0
83,2.096,1.148,-1.045,0.852,31.737,0.751,0
149,1.758,-0.509,0.25,-0.47,34.526,0.822,0
111,1.229,-0.158,-0.083,-0.846,35.474,0.859,0
82,1.963,0.803,2.804,0.663,36.684,1.043,0
92,1.541,0.852,0.65,0.1,33.632,1.095,0
131,1.238,-0.102,-0.621,0.436,32.684,1.166,0
171,0.266,0.237,0.049,-0.046,33.263,0.996,1
121,1.104,-0.811,-0.899,0.527,32.895,1.157,0
95,1.964,0.133,0.48,-0.14,31.579,1.272,0
183,0.168,0.08,-0.088,-0.032,34.526,1.306,1
166,0.599,0.402,0.056,-0.152,33.789,1.346,0
176,0.377,-0.4,0.066,-0.008,31.421,1.303,1
119,1.488,0.027,1.404,0.69,33.632,1.337,0
87,2.096,4.42,0.426,0.38,34.737,1.582,0
172,0.161,0.09,0.143,0.045,38.211,1.616,1
137,1.697,0.37,0.519,-0.158,39.263,1.515,0
132,1.275,0.755,-0.338,0.342,38.895,1.376,0
132,1.575,-0.628,0.691,0.048,37.842,1.358,0
164,0.697,-0.371,-0.219,-0.38,38.368,1.113,1
81,1.976,1.549,-1.454,1.015,39.053,1.13,0
177,0.285,-0.11,-0.078,-0.123,40.632,1.018,1
85,1.555,0.675,-0.267,-0.67,43.474,1.181,0
141,0.954,-0.686,0.205,0.576,44.895,1.108,0
131,1.235,-0.233,0.172,-0.279,44.895,0.97,0
104,1.898,1.46,0.429,-0.144,44.263,1.077,0
96,1.572,-0.966,0.959,-0.467,42.579,1.151,0
127,1.422,1.271,1.338,-0.204,41.579,1.259,0
174,0.21,0.032,0.079,0.123,42.684,1.133,1
146,0.358,-0.13,0.375,-0.167,39.526,0.923,1
133,0.941,0.557,0.355,-0.357,39.316,0.978,0
134,1.175,0.966,0.05,0.68,38.842,0.97,0
75,1.837,0.006,-0.837,1.036,38.947,1.03,0
159,0.575,0.542,-0.607,0.298,41.684,0.953,1
151,0.499,0.143,0.309,0.111,37.632,1.015,1
177,0.44,-0.002,0.517,0.197,37.158,0.897,1
125,1.278,1.055,-0.769,0.811,39.632,1.014,0
101,1.668,0.2,0.958,-0.613,40.895,0.944,0
130,1.247,-0.094,-0.16,0.198,40.737,0.97,0
127,1.152,0.318,1.366,-0.026,36.526,1.008,0
165,0.734,0.452,-0.007,0.141,33.474,0.846,0
119,1.246,-1.016,-1.05,0.237,31.053,0.785,0
141,1.343,0.876,0.541,-0.556,29.263,0.739,0
125,1.242,1.019,-0.257,-0.39,29.579,0.846,0
80,1.63,0.197,0.5,-0.778,30.526,1.008,0
89,2.018,-1.17,1.956,0.744,30.579,1.025,0
169,0.601,0.048,-0.064,-0.051,33.158,1.023,1
65,1.679,0.693,0.67,0.554,36.158,0.981,0
155,0.573,-0.25,-0.419,-0.074,39.421,1.04,0
168,0.988,-0.181,0.325,-0.117,39.421,1.082,1
164,0.914,0.142,0.01,-0.235,39.579,1.224,1
185,0.174,0.098,-0.109,-0.052,37.579,1.079,1
148,0.816,0.335,-0.29,0.274,35.105,1.018,1
130,1.146,0.687,1.416,-0.367,35.632,0.994,0
91,1.983,1.481,0.034,0.04,36.316,1.05,0
184,0.079,0.054,-0.095,-0.01,38.474,1.088,1
139,1.663,-0.939,-0.902,0.471,39.579,1.14,0
85,1.882,-0.207,-1.405,0.36,40.895,1.183,0
84,1.334,0.39,0.481,0.032,40.789,1.111,0
186,0.159,-0.044,0.033,0.087,44.158,0.941,1
183,0.12,0.008,-0.033,-0.031,41.895,0.78,1
104,2.177,0.185,-1.501,-0.535,44.895,0.896,0
133,1.441,-0.63,0.338,0.015,45.579,0.89,0
136,1.547,-0.226,-0.757,-0.453,43.368,0.947,0
95,2.234,-1.775,0.688,0.817,45.053,0.99,0
143,1.131,0.762,0.322,0.018,43.368,0.977,0
175,0.078,-0.092,0.055,-0.042,39.579,1.034,1
138,1.502,-1.368,1.158,-0.07,36.789,1.13,0
122,0.943,-0.078,0.002,-0.243,36.947,1.124,0
131,1.21,1.027,1.224,-0.733,37.211,1.024,0
156,0.862,-0.915,0.302,-0.243,37.421,1.113,1
148,0.714,-0.019,0.287,-0.09,35.895,1.029,1
80,1.75,1.223,-0.3,0.738,38.526,0.989,0
143,1.334,0.193,-1.36,-0.723,39.789,0.984,0
188,0.313,-0.267,-0.08,0.068,37.263,1.084,1
153,0.927,0.294,-0.18,0.197,36.737,1.287,0
139,1.679,0.782,0.088,0.616,34.632,1.126,0
119,1.747,0.835,1.263,-0.057,35.632,1.163,0
147,0.867,-0.318,-0.422,0.247,31.737,1.053,1
77,1.613,0.261,0.029,-0.571,35.263,0.943,0
186,0.364,0.314,0.319,0.016,36.842,0.889,1
121,1.629,-2.612,-0.332,-0.438,38.737,0.981,0
94,1.709,-1.15,-0.055,-0.461,40.0,0.956,0
87,1.774,-0.668,0.386,0.688,38.211,1.012,0
155,0.478,0.359,-0.017,-0.161,39.263,1.015,1
149,0.565,0.242,0.53,0.114,37.895,0.955,1
175,0.243,-0.228,0.112,-0.035,37.316,0.98,1
62,0.988,-0.305,0.546,0.398,42.421,0.943,0
83,1.566,0.479,-0.978,-0.685,43.053,0.957,0
155,0.741,-0.013,-0.217,0.08,45.526,0.973,0
158,0.732,-0.723,-0.011,-0.372,45.263,0.919,1
107,2.349,-1.2,-0.293,-0.378,44.368,0.983,0
97,2.19,0.083,-0.439,0.45,41.579,0.991,0
96,1.559,2.575,0.073,-0.27,39.263,1.07,0
129,1.719,-0.677,0.312,0.028,39.158,1.116,0
155,0.958,1.093,-0.696,-0.404,39.789,1.207,1
125,1.451,0.029,-0.146,0.064,40.316,1.09,0
164,0.694,0.858,-0.217,0.128,40.895,1.02,1
131,0.85,-0.164,0.409,0.25,38.947,0.924,0
130,1.639,0.109,1.975,-0.052,33.263,1.027,0
86,1.436,0.459,-0.005,0.029,32.158,1.095,0
159,1.013,-0.505,0.151,-0.081,34.579,1.17,0
160,0.243,-0.187,0.242,-0.027,34.263,1.179,1
173,0.134,-0.207,0.083,-0.0,31.368,1.076,1
152,1.012,0.344,0.587,0.098,32.158,1.065,0
101,1.906,-0.094,1.02,-0.206,33.474,1.147,0
77,1.399,0.376,-0.341,-0.07,28.789,1.048,0
86,2.077,1.873,-1.598,0.922,28.158,1.016,0
98,1.981,-0.049,-1.352,-0.406,25.0,1.001,0
155,0.404,0.048,-0.026,0.125,27.842,0.924,0
154,0.66,-0.634,0.28,-0.034,25.211,0.88,1
137,1.225,-0.721,-0.399,-0.906,25.579,0.877,0
137,0.768,-0.921,0.045,0.04,25.526,0.93,0
150,0.864,-0.419,0.459,0.076,24.474,0.981,0
144,1.243,-0.209,1.118,0.348,23.421,0.897,0
160,0.616,-0.59,0.093,-0.077,22.684,0.813,1
102,1.68,1.23,-0.117,0.171,23.684,0.815,0
88,1.558,0.709,0.002,0.165,22.684,0.916,0
158,0.31,-0.366,-0.113,-0.222,26.316,1.0,1
106,1.552,-0.644,0.253,0.47,26.737,1.015,0
160,0.779,-0.448,-0.269,-0.171,25.737,0.894,1
163,0.074,0.023,0.002,0.038,25.842,0.867,1
98,1.846,0.321,1.265,-0.409,28.579,0.86,0
132,1.084,0.845,0.307,0.357,29.263,0.792,0
81,1.881,-0.831,-2.397,0.173,29.263,0.939,0
178,0.33,0.215,0.001,-0.11,33.105,0.936,1
163,0.636,0.204,0.496,0.217,33.421,0.913,0
152,0.664,0.238,0.237,0.482,33.368,0.903,1
170,0.266,0.041,0.113,0.108,31.316,0.866,1
133,1.013,-0.216,-0.131,0.593,33.211,0.873,0
117,1.252,0.026,0.84,-0.566,33.158,0.96,0
183,0.315,-0.304,0.049,0.002,36.632,0.836,1
156,0.434,0.315,-0.189,-0.064,37.368,0.709,0
178,0.194,0.073,-0.177,0.01,38.211,0.696,1
129,1.334,0.245,-1.895,0.41,39.947,0.663,0
159,0.617,-0.638,0.789,0.027,38.474,0.698,1
161,0.562,0.165,-0.067,0.06,37.842,0.787,0
133,1.605,-1.413,0.008,0.775,35.632,0.783,0
